Shimmer_8280_Timestamp_Unix_CAL,Shimmer_8280_Accel_LN_X_CAL,Shimmer_8280_Accel_LN_Y_CAL,Shimmer_8280_Accel_LN_Z_CAL,Shimmer_8280_GSR_Range_CAL,Shimmer_8280_GSR_Skin_Conductance_CAL,Shimmer_8280_GSR_Skin_Resistance_CAL,Shimmer_8280_Gyro_X_CAL,Shimmer_8280_Gyro_Y_CAL,Shimmer_8280_Gyro_Z_CAL,Shimmer_8280_Mag_X_CAL,Shimmer_8280_Mag_Y_CAL,Shimmer_8280_Mag_Z_CAL,Shimmer_8280_Pressure_BMP280_CAL,Shimmer_8280_Temperature_BMP280_CAL,adjusted_time
1726836054135.8645,2.8260869565217392,2.760869565217391,11.271739130434783,3.0,0.43756243756243757,2285.388127853881,-7.572519083969465,0.7633587786259541,1.7557251908396947,-0.2848575712143928,-0.0239880059970015,0.1454272863568216,99.59789787310717,22.25598996282206,2024-09-20 14:40:54.135864576+02:00
1726836054155.3955,2.8043478260869565,2.75,11.304347826086957,3.0,0.43756243756243757,2285.388127853881,-7.1603053435114505,1.1755725190839694,1.4045801526717556,-0.28785607196401797,-0.013493253373313342,0.1454272863568216,99.59789787310717,22.25598996282206,2024-09-20 14:40:54.155395584+02:00
1726836054174.9268,2.793478260869565,2.75,11.271739130434783,0.0,1.4396880068521862,694.5949367088606,-7.49618320610687,1.2213740458015268,1.465648854961832,-0.28785607196401797,-0.008995502248875561,0.14692653673163417,99.59789787310717,22.25598996282206,2024-09-20 14:40:54.174926848+02:00
1726836054194.458,2.7717391304347827,2.782608695652174,11.304347826086957,0.0,1.4396880068521862,694.5949367088606,-7.465648854961832,0.9770992366412213,1.4198473282442747,-0.2908545727136432,-0.008995502248875561,0.14392803598200898,99.60060583452916,22.25598996282206,2024-09-20 14:40:54.194458112+02:00
1726836054213.9893,2.793478260869565,2.7391304347826084,11.304347826086957,0.0,1.4396880068521862,694.5949367088606,-7.938931297709924,1.3587786259541985,1.2061068702290076,-0.29685157421289354,-0.0074962518740629685,0.14692653673163417,99.59518991421092,22.25598996282206,2024-09-20 14:40:54.213989376+02:00
1726836054233.5205,2.782608695652174,2.7717391304347827,11.304347826086957,0.0,1.4396880068521862,694.5949367088606,-7.297709923664121,1.3129770992366412,1.4809160305343512,-0.29535232383808097,-0.01649175412293853,0.14842578710644677,99.59518991421092,22.25598996282206,2024-09-20 14:40:54.233520384+02:00
1726836054253.0518,2.793478260869565,2.7717391304347827,11.293478260869565,0.0,1.4396880068521862,694.5949367088606,-7.755725190839694,1.465648854961832,1.297709923664122,-0.2848575712143928,-0.026986506746626684,0.14842578710644677,99.59789787310717,22.25598996282206,2024-09-20 14:40:54.253051648+02:00
1726836054272.583,2.760869565217391,2.7717391304347827,11.304347826086957,1.0,1.421806996719889,703.3303411131058,-7.526717557251908,1.297709923664122,1.4961832061068703,-0.2833583208395802,-0.0239880059970015,0.1454272863568216,99.59248195784038,22.25598996282206,2024-09-20 14:40:54.272582912+02:00
1726836054292.1145,2.7391304347826084,2.75,11.315217391304348,1.0,1.421806996719889,703.3303411131058,-7.419847328244274,1.3129770992366412,1.7251908396946565,-0.2848575712143928,-0.02848575712143928,0.14692653673163417,99.59248195784038,22.25598996282206,2024-09-20 14:40:54.292114432+02:00
1726836054311.6455,2.782608695652174,2.75,11.315217391304348,1.0,1.421806996719889,703.3303411131058,-7.3893129770992365,1.2519083969465647,1.6946564885496183,-0.28785607196401797,-0.010494752623688156,0.14692653673163417,99.58977400399563,22.25598996282206,2024-09-20 14:40:54.311645440+02:00
1726836054331.1768,2.8152173913043477,2.7717391304347827,11.26086956521739,1.0,1.421806996719889,703.3303411131058,-7.816793893129771,0.7786259541984732,1.7557251908396947,-0.2848575712143928,-0.014992503748125937,0.1454272863568216,99.58977400399563,22.25598996282206,2024-09-20 14:40:54.331176704+02:00
1726836054350.708,2.793478260869565,2.75,11.358695652173912,1.0,1.421806996719889,703.3303411131058,-8.030534351145038,1.3740458015267174,1.4961832061068703,-0.29235382308845576,-0.01199400299850075,0.14692653673163417,99.58977400399563,22.25598996282206,2024-09-20 14:40:54.350707968+02:00
1726836054370.2393,2.7391304347826084,2.75,11.271739130434783,2.0,1.419047619047619,704.6979865771813,-7.7251908396946565,0.8702290076335878,1.9389312977099236,-0.2908545727136432,-0.008995502248875561,0.1409295352323838,99.59518991421092,22.25598996282206,2024-09-20 14:40:54.370239232+02:00
1726836054389.7705,2.782608695652174,2.760869565217391,11.304347826086957,2.0,1.419047619047619,704.6979865771813,-7.8473282442748085,0.9007633587786259,1.8015267175572518,-0.28785607196401797,-0.022488755622188904,0.1409295352323838,99.59248195784038,22.25598996282206,2024-09-20 14:40:54.389770496+02:00
1726836054409.3018,2.8152173913043477,2.75,11.304347826086957,2.0,1.419047619047619,704.6979865771813,-7.7251908396946565,1.3740458015267174,1.618320610687023,-0.2833583208395802,-0.022488755622188904,0.14692653673163417,99.59248195784038,22.25598996282206,2024-09-20 14:40:54.409301760+02:00
1726836054428.833,2.760869565217391,2.7391304347826084,11.282608695652174,2.0,1.419047619047619,704.6979865771813,-7.969465648854961,1.114503816793893,1.5877862595419847,-0.2773613193403298,-0.020989505247376312,0.14842578710644677,99.59248195784038,22.25598996282206,2024-09-20 14:40:54.428833024+02:00
1726836054448.3645,2.8043478260869565,2.75,11.315217391304348,2.0,1.419047619047619,704.6979865771813,-7.801526717557252,0.732824427480916,1.6793893129770991,-0.2893553223388306,-0.026986506746626684,0.14842578710644677,99.59518991421092,22.25598996282206,2024-09-20 14:40:54.448364544+02:00
1726836054467.8955,2.8152173913043477,2.7391304347826084,11.26086956521739,2.0,1.419047619047619,704.6979865771813,-7.49618320610687,1.1908396946564885,1.3129770992366412,-0.2908545727136432,-0.01649175412293853,0.15292353823088456,99.59518991421092,22.25598996282206,2024-09-20 14:40:54.467895552+02:00
1726836054487.4268,2.782608695652174,2.760869565217391,11.271739130434783,2.0,1.4175824175824174,705.4263565891474,-7.603053435114504,2.213740458015267,1.3893129770992365,-0.2833583208395802,-0.01649175412293853,0.13793103448275862,99.5870660526766,22.25598996282206,2024-09-20 14:40:54.487426816+02:00
1726836054506.958,2.7065217391304346,2.760869565217391,11.326086956521738,2.0,1.419047619047619,704.6979865771813,-7.923664122137405,2.396946564885496,1.2671755725190839,-0.29685157421289354,-0.0029985007496251873,0.14842578710644677,99.59518991421092,22.25598996282206,2024-09-20 14:40:54.506958080+02:00
1726836054526.4893,2.6739130434782608,2.717391304347826,11.26086956521739,2.0,1.419047619047619,704.6979865771813,-7.572519083969465,1.66412213740458,1.2366412213740459,-0.28785607196401797,-0.017991004497751123,0.1409295352323838,99.59248195784038,22.25598996282206,2024-09-20 14:40:54.526489344+02:00
1726836054546.0205,2.902173913043478,2.7391304347826084,11.304347826086957,2.0,1.4175824175824174,705.4263565891474,-7.633587786259541,0.5801526717557252,1.3282442748091603,-0.2893553223388306,-0.005997001499250375,0.14842578710644677,99.59248195784038,22.25598996282206,2024-09-20 14:40:54.546020608+02:00
1726836054565.5518,2.793478260869565,2.760869565217391,11.26086956521739,2.0,1.419047619047619,704.6979865771813,-8.290076335877862,1.6335877862595418,1.7251908396946565,-0.2893553223388306,-0.020989505247376312,0.14392803598200898,99.5870660526766,22.25598996282206,2024-09-20 14:40:54.565551872+02:00
1726836054585.083,2.608695652173913,2.717391304347826,11.33695652173913,2.0,1.419047619047619,704.6979865771813,-7.6183206106870225,3.0534351145038165,1.297709923664122,-0.2773613193403298,-0.0239880059970015,0.14692653673163417,99.59518991421092,22.25598996282206,2024-09-20 14:40:54.585082880+02:00
1726836054604.6145,2.717391304347826,2.7282608695652173,11.271739130434783,2.0,1.419047619047619,704.6979865771813,-8.061068702290076,1.83206106870229,1.5267175572519083,-0.2848575712143928,-0.017991004497751123,0.1409295352323838,99.58977400399563,22.25598996282206,2024-09-20 14:40:54.604614400+02:00
1726836054624.1455,2.75,2.7282608695652173,11.315217391304348,2.0,1.419047619047619,704.6979865771813,-7.877862595419847,0.9618320610687022,1.7709923664122136,-0.2818590704647676,-0.013493253373313342,0.14842578710644677,99.5870660526766,22.25598996282206,2024-09-20 14:40:54.624145408+02:00
1726836054643.6768,2.8260869565217392,2.760869565217391,11.326086956521738,2.0,1.4175824175824174,705.4263565891474,-7.2824427480916025,0.7938931297709924,1.66412213740458,-0.2848575712143928,-0.0074962518740629685,0.1454272863568216,99.58435810388333,22.25598996282206,2024-09-20 14:40:54.643676672+02:00
1726836054663.208,2.6956521739130435,2.717391304347826,11.33695652173913,2.0,1.4175824175824174,705.4263565891474,-7.908396946564885,1.9389312977099236,1.816793893129771,-0.2983508245877061,-0.013493253373313342,0.15142428785607195,99.5870660526766,22.25598996282206,2024-09-20 14:40:54.663207936+02:00
1726836054682.7393,2.717391304347826,2.7391304347826084,11.271739130434783,2.0,1.419047619047619,704.6979865771813,-7.541984732824427,1.297709923664122,1.7099236641221374,-0.2908545727136432,-0.019490254872563718,0.1409295352323838,99.59789787310717,22.25598996282206,2024-09-20 14:40:54.682739200+02:00
1726836054702.2705,2.793478260869565,2.6956521739130435,11.315217391304348,2.0,1.419047619047619,704.6979865771813,-8.061068702290076,0.7022900763358778,1.9694656488549618,-0.2893553223388306,-0.013493253373313342,0.1394302848575712,99.58977400399563,22.25598996282206,2024-09-20 14:40:54.702270464+02:00
1726836054721.8018,2.7717391304347827,2.7391304347826084,11.293478260869565,2.0,1.419047619047619,704.6979865771813,-7.526717557251908,0.6106870229007634,1.6030534351145038,-0.28785607196401797,-0.01199400299850075,0.13493253373313344,99.59518991421092,22.25598996282206,2024-09-20 14:40:54.721801728+02:00
1726836054741.333,2.760869565217391,2.7391304347826084,11.304347826086957,2.0,1.419047619047619,704.6979865771813,-7.206106870229007,0.8091603053435115,1.282442748091603,-0.2833583208395802,-0.017991004497751123,0.1424287856071964,99.5870660526766,22.25598996282206,2024-09-20 14:40:54.741332992+02:00
1726836054760.8645,2.7282608695652173,2.7282608695652173,11.315217391304348,2.0,1.419047619047619,704.6979865771813,-7.709923664122137,1.282442748091603,1.5877862595419847,-0.2788605697151424,-0.019490254872563718,0.14842578710644677,99.58977400399563,22.25598996282206,2024-09-20 14:40:54.760864512+02:00
1726836054780.3955,2.717391304347826,2.7391304347826084,11.271739130434783,2.0,1.419047619047619,704.6979865771813,-7.419847328244274,1.099236641221374,1.5725190839694656,-0.2848575712143928,-0.01199400299850075,0.1424287856071964,99.58435810388333,22.25598996282206,2024-09-20 14:40:54.780395520+02:00
1726836054799.9268,2.782608695652174,2.6956521739130435,11.304347826086957,2.0,1.419047619047619,704.6979865771813,-7.374045801526718,0.564885496183206,1.6946564885496183,-0.29235382308845576,-0.01199400299850075,0.1424287856071964,99.58435810388333,22.25598996282206,2024-09-20 14:40:54.799926784+02:00
1726836054819.458,2.75,2.7282608695652173,11.347826086956522,2.0,1.419047619047619,704.6979865771813,-7.557251908396946,1.129770992366412,1.7099236641221374,-0.2848575712143928,-0.013493253373313342,0.14842578710644677,99.58977400399563,22.25598996282206,2024-09-20 14:40:54.819458048+02:00
1726836054838.9893,2.7065217391304346,2.7391304347826084,11.282608695652174,2.0,1.419047619047619,704.6979865771813,-7.114503816793893,1.4809160305343512,1.3893129770992365,-0.2848575712143928,-0.014992503748125937,0.13493253373313344,99.5870660526766,22.25598996282206,2024-09-20 14:40:54.838989312+02:00
1726836054858.5205,2.7065217391304346,2.717391304347826,11.33695652173913,2.0,1.419047619047619,704.6979865771813,-7.1603053435114505,1.099236641221374,1.618320610687023,-0.2833583208395802,-0.014992503748125937,0.1454272863568216,99.59248195784038,22.25598996282206,2024-09-20 14:40:54.858520576+02:00
1726836054878.0518,2.7282608695652173,2.7391304347826084,11.293478260869565,2.0,1.4205128205128204,703.9711191335741,-7.404580152671755,0.9465648854961831,1.7251908396946565,-0.2833583208395802,0.0014992503748125937,0.1424287856071964,99.5870660526766,22.25598996282206,2024-09-20 14:40:54.878051840+02:00
1726836054897.583,2.793478260869565,2.75,11.304347826086957,2.0,1.4205128205128204,703.9711191335741,-7.755725190839694,0.6259541984732824,1.7251908396946565,-0.2848575712143928,-0.017991004497751123,0.14842578710644677,99.57894221387403,22.25598996282206,2024-09-20 14:40:54.897583104+02:00
1726836054917.1145,2.782608695652174,2.6956521739130435,11.304347826086957,2.0,1.4205128205128204,703.9711191335741,-7.877862595419847,0.9618320610687022,1.8473282442748091,-0.2773613193403298,-0.017991004497751123,0.13343328335832083,99.59248195784038,22.25598996282206,2024-09-20 14:40:54.917114624+02:00
1726836054936.6455,2.6956521739130435,2.75,11.293478260869565,2.0,1.4205128205128204,703.9711191335741,-7.374045801526718,0.7786259541984732,1.6946564885496183,-0.280359820089955,-0.0239880059970015,0.1409295352323838,99.59248195784038,22.25598996282206,2024-09-20 14:40:54.936645632+02:00
1726836054956.1768,2.8152173913043477,2.7282608695652173,11.293478260869565,2.0,1.4205128205128204,703.9711191335741,-7.129770992366412,0.6412213740458015,1.5419847328244274,-0.2773613193403298,-0.017991004497751123,0.13493253373313344,99.58977400399563,22.25598996282206,2024-09-20 14:40:54.956176640+02:00
1726836054975.708,2.760869565217391,2.7282608695652173,11.326086956521738,2.0,1.4205128205128204,703.9711191335741,-7.511450381679389,0.2900763358778626,1.66412213740458,-0.280359820089955,-0.0014992503748125937,0.1409295352323838,99.58977400399563,22.25598996282206,2024-09-20 14:40:54.975707904+02:00
1726836054995.2393,2.7391304347826084,2.7391304347826084,11.271739130434783,2.0,1.4219780219780218,703.2457496136013,-7.007633587786259,0.6106870229007634,1.5877862595419847,-0.2833583208395802,-0.004497751124437781,0.14692653673163417,99.58435810388333,22.25598996282206,2024-09-20 14:40:54.995239168+02:00
1726836055014.7705,2.75,2.7282608695652173,11.33695652173913,2.0,1.4219780219780218,703.2457496136013,-7.374045801526718,1.3129770992366412,1.83206106870229,-0.2908545727136432,-0.008995502248875561,0.1454272863568216,99.59518991421092,22.25598996282206,2024-09-20 14:40:55.014770432+02:00
1726836055034.3018,2.7065217391304346,2.760869565217391,11.326086956521738,2.0,1.4219780219780218,703.2457496136013,-7.297709923664121,0.732824427480916,1.7709923664122136,-0.27586206896551724,-0.01649175412293853,0.1454272863568216,99.58435810388333,22.25598996282206,2024-09-20 14:40:55.034301696+02:00
1726836055053.833,2.782608695652174,2.760869565217391,11.25,2.0,1.4219780219780218,703.2457496136013,-7.7251908396946565,0.916030534351145,1.9541984732824427,-0.2788605697151424,0.008995502248875561,0.14692653673163417,101.18446338714548,31.775774885923603,2024-09-20 14:40:55.053832960+02:00
1726836055073.3645,2.75,2.6956521739130435,11.358695652173912,2.0,1.4219780219780218,703.2457496136013,-7.343511450381679,0.916030534351145,1.3893129770992365,-0.2848575712143928,-0.020989505247376312,0.14842578710644677,101.1927131315126,31.775774885923603,2024-09-20 14:40:55.073364480+02:00
1726836055092.8955,2.7282608695652173,2.75,11.282608695652174,2.0,1.4234432234432233,702.5218733916624,-7.6183206106870225,0.9465648854961831,1.83206106870229,-0.2863568215892054,-0.0239880059970015,0.14392803598200898,101.18446338714548,31.775774885923603,2024-09-20 14:40:55.092895488+02:00
1726836055112.4268,2.7391304347826084,2.7282608695652173,11.304347826086957,2.0,1.4234432234432233,702.5218733916624,-7.587786259541985,0.9770992366412213,1.66412213740458,-0.2863568215892054,-0.019490254872563718,0.1424287856071964,101.18446338714548,31.775774885923603,2024-09-20 14:40:55.112426752+02:00
1726836055131.958,2.7391304347826084,2.717391304347826,11.304347826086957,2.0,1.4234432234432233,702.5218733916624,-7.297709923664121,0.8244274809160305,1.66412213740458,-0.2773613193403298,-0.019490254872563718,0.14992503748125938,101.1927131315126,31.775774885923603,2024-09-20 14:40:55.131958016+02:00
1726836055151.4893,2.7717391304347827,2.7391304347826084,11.315217391304348,2.0,1.4234432234432233,702.5218733916624,-7.49618320610687,0.8549618320610687,1.648854961832061,-0.280359820089955,-0.01649175412293853,0.14692653673163417,101.18996321412179,31.775774885923603,2024-09-20 14:40:55.151489280+02:00
1726836055171.0205,2.760869565217391,2.717391304347826,11.271739130434783,2.0,1.4234432234432233,702.5218733916624,-7.603053435114504,0.732824427480916,1.9389312977099236,-0.2848575712143928,0.0,0.14842578710644677,101.18996321412179,31.775774885923603,2024-09-20 14:40:55.171020544+02:00
1726836055190.5518,2.684782608695652,2.7282608695652173,11.33695652173913,2.0,1.4219780219780218,703.2457496136013,-7.145038167938931,0.8244274809160305,1.465648854961832,-0.280359820089955,-0.010494752623688156,0.1409295352323838,101.1927131315126,31.775774885923603,2024-09-20 14:40:55.190551808+02:00
1726836055210.083,2.7391304347826084,2.75,11.315217391304348,2.0,1.4234432234432233,702.5218733916624,-7.083969465648854,0.9465648854961831,1.4961832061068703,-0.2833583208395802,-0.01199400299850075,0.1394302848575712,101.18721329933275,31.775774885923603,2024-09-20 14:40:55.210083072+02:00
1726836055229.6145,2.7391304347826084,2.7282608695652173,11.326086956521738,2.0,1.4234432234432233,702.5218733916624,-7.3893129770992365,0.9465648854961831,1.7404580152671756,-0.2833583208395802,-0.019490254872563718,0.1424287856071964,101.18446338714548,31.775774885923603,2024-09-20 14:40:55.229614592+02:00
1726836055249.1455,2.782608695652174,2.75,11.282608695652174,2.0,1.4234432234432233,702.5218733916624,-7.374045801526718,1.1450381679389312,1.6335877862595418,-0.2818590704647676,-0.014992503748125937,0.15292353823088456,101.18446338714548,31.775774885923603,2024-09-20 14:40:55.249145600+02:00
1726836055268.6768,2.7282608695652173,2.7065217391304346,11.293478260869565,2.0,1.4249084249084247,701.7994858611826,-7.541984732824427,1.3129770992366412,1.83206106870229,-0.29535232383808097,-0.017991004497751123,0.1454272863568216,101.18996321412179,31.775774885923603,2024-09-20 14:40:55.268676864+02:00
1726836055288.208,2.7282608695652173,2.7391304347826084,11.315217391304348,2.0,1.4234432234432233,702.5218733916624,-7.297709923664121,0.9770992366412213,1.4351145038167938,-0.280359820089955,-0.008995502248875561,0.14992503748125938,101.1927131315126,31.775774885923603,2024-09-20 14:40:55.288208128+02:00
1726836055307.7393,2.7717391304347827,2.7282608695652173,11.293478260869565,2.0,1.4234432234432233,702.5218733916624,-7.419847328244274,0.8549618320610687,1.5419847328244274,-0.28785607196401797,-0.008995502248875561,0.1409295352323838,101.18996321412179,31.775774885923603,2024-09-20 14:40:55.307739136+02:00
1726836055327.2705,2.7282608695652173,2.75,11.293478260869565,2.0,1.4249084249084247,701.7994858611826,-7.343511450381679,1.3282442748091603,1.648854961832061,-0.28785607196401797,-0.0074962518740629685,0.1424287856071964,101.18721329933275,31.775774885923603,2024-09-20 14:40:55.327270400+02:00
1726836055346.8018,2.684782608695652,2.7391304347826084,11.326086956521738,2.0,1.4249084249084247,701.7994858611826,-7.557251908396946,1.450381679389313,1.9389312977099236,-0.2818590704647676,-0.0074962518740629685,0.14392803598200898,101.18996321412179,31.775774885923603,2024-09-20 14:40:55.346801664+02:00
1726836055366.333,2.6630434782608696,2.75,11.271739130434783,2.0,1.4249084249084247,701.7994858611826,-7.770992366412213,0.9923664122137404,2.030534351145038,-0.28785607196401797,-0.005997001499250375,0.1409295352323838,101.18996321412179,31.775774885923603,2024-09-20 14:40:55.366332928+02:00
1726836055385.8645,2.717391304347826,2.7391304347826084,11.358695652173912,2.0,1.4249084249084247,701.7994858611826,-7.465648854961832,0.564885496183206,1.5572519083969465,-0.280359820089955,-0.014992503748125937,0.14992503748125938,101.18446338714548,31.775774885923603,2024-09-20 14:40:55.385864448+02:00
1726836055405.3955,2.8043478260869565,2.7282608695652173,11.271739130434783,2.0,1.4249084249084247,701.7994858611826,-7.404580152671755,0.0916030534351145,1.816793893129771,-0.280359820089955,-0.017991004497751123,0.1409295352323838,101.1927131315126,31.775774885923603,2024-09-20 14:40:55.405395456+02:00
1726836055424.9268,2.7717391304347827,2.7282608695652173,11.315217391304348,2.0,1.4249084249084247,701.7994858611826,-7.541984732824427,0.8091603053435115,1.7251908396946565,-0.29385307346326833,-0.0239880059970015,0.1409295352323838,101.1927131315126,31.775774885923603,2024-09-20 14:40:55.424926720+02:00
1726836055444.458,2.75,2.7282608695652173,11.282608695652174,2.0,1.4249084249084247,701.7994858611826,-7.358778625954198,0.6717557251908397,1.4045801526717556,-0.2833583208395802,-0.01649175412293853,0.14392803598200898,101.18996321412179,31.775774885923603,2024-09-20 14:40:55.444457984+02:00
1726836055463.9893,2.782608695652174,2.7065217391304346,11.326086956521738,2.0,1.4249084249084247,701.7994858611826,-7.572519083969465,1.4198473282442747,1.618320610687023,-0.2833583208395802,-0.010494752623688156,0.14692653673163417,101.18171347755997,31.775774885923603,2024-09-20 14:40:55.463989248+02:00
1726836055483.5205,2.7065217391304346,2.7391304347826084,11.293478260869565,2.0,1.4249084249084247,701.7994858611826,-7.145038167938931,1.099236641221374,1.083969465648855,-0.29235382308845576,-0.008995502248875561,0.13793103448275862,101.18996321412179,31.775774885923603,2024-09-20 14:40:55.483520512+02:00
1726836055503.0518,2.717391304347826,2.6956521739130435,11.347826086956522,2.0,1.4249084249084247,701.7994858611826,-7.267175572519084,1.282442748091603,1.7099236641221374,-0.2863568215892054,-0.008995502248875561,0.14842578710644677,101.18996321412179,31.775774885923603,2024-09-20 14:40:55.503051776+02:00
1726836055522.583,2.7065217391304346,2.7391304347826084,11.282608695652174,2.0,1.4249084249084247,701.7994858611826,-7.175572519083969,0.9312977099236641,1.3587786259541985,-0.2818590704647676,-0.008995502248875561,0.14692653673163417,101.18721329933275,31.775774885923603,2024-09-20 14:40:55.522583040+02:00
1726836055542.1145,2.7282608695652173,2.760869565217391,11.315217391304348,2.0,1.4234432234432233,702.5218733916624,-7.6183206106870225,1.0229007633587786,1.8473282442748091,-0.2893553223388306,-0.01649175412293853,0.1454272863568216,101.18721329933275,31.775774885923603,2024-09-20 14:40:55.542114560+02:00
1726836055561.6455,2.75,2.7391304347826084,11.282608695652174,2.0,1.4249084249084247,701.7994858611826,-7.709923664122137,0.8091603053435115,1.66412213740458,-0.2788605697151424,0.004497751124437781,0.1424287856071964,101.18721329933275,31.775774885923603,2024-09-20 14:40:55.561645568+02:00
1726836055581.1768,2.684782608695652,2.717391304347826,11.304347826086957,2.0,1.4249084249084247,701.7994858611826,-7.786259541984733,1.0534351145038168,2.030534351145038,-0.2848575712143928,-0.01649175412293853,0.1409295352323838,101.18171347755997,31.775774885923603,2024-09-20 14:40:55.581176832+02:00
1726836055600.708,2.760869565217391,2.760869565217391,11.282608695652174,2.0,1.4249084249084247,701.7994858611826,-7.175572519083969,0.42748091603053434,1.7862595419847327,-0.2818590704647676,-0.026986506746626684,0.14692653673163417,101.18996321412179,31.775774885923603,2024-09-20 14:40:55.600708096+02:00
1726836055620.2393,2.7717391304347827,2.717391304347826,11.293478260869565,2.0,1.4249084249084247,701.7994858611826,-7.740458015267175,0.8854961832061068,1.7404580152671756,-0.2818590704647676,-0.01199400299850075,0.14842578710644677,101.18996321412179,31.775774885923603,2024-09-20 14:40:55.620239360+02:00
1726836055639.7705,2.7391304347826084,2.7282608695652173,11.293478260869565,2.0,1.4249084249084247,701.7994858611826,-7.343511450381679,0.7786259541984732,1.6793893129770991,-0.2833583208395802,-0.017991004497751123,0.14392803598200898,101.18721329933275,31.775774885923603,2024-09-20 14:40:55.639770624+02:00
1726836055659.3018,2.760869565217391,2.7391304347826084,11.304347826086957,2.0,1.4249084249084247,701.7994858611826,-7.49618320610687,0.5801526717557252,1.5267175572519083,-0.2818590704647676,-0.005997001499250375,0.1454272863568216,101.18171347755997,31.775774885923603,2024-09-20 14:40:55.659301632+02:00
1726836055678.833,2.717391304347826,2.7282608695652173,11.315217391304348,2.0,1.4249084249084247,701.7994858611826,-7.374045801526718,0.8244274809160305,1.9389312977099236,-0.2863568215892054,-0.005997001499250375,0.136431784107946,101.18721329933275,31.775774885923603,2024-09-20 14:40:55.678832896+02:00
1726836055698.3645,2.7391304347826084,2.7282608695652173,11.282608695652174,2.0,1.4249084249084247,701.7994858611826,-7.648854961832061,0.5801526717557252,1.6335877862595418,-0.2848575712143928,0.0029985007496251873,0.1424287856071964,101.18721329933275,31.775774885923603,2024-09-20 14:40:55.698364416+02:00
1726836055717.8955,2.760869565217391,2.684782608695652,11.326086956521738,2.0,1.4249084249084247,701.7994858611826,-7.7251908396946565,0.9770992366412213,1.3893129770992365,-0.280359820089955,-0.022488755622188904,0.13793103448275862,101.18446338714548,31.775774885923603,2024-09-20 14:40:55.717895424+02:00
1726836055737.4268,2.684782608695652,2.760869565217391,11.282608695652174,2.0,1.4249084249084247,701.7994858611826,-7.572519083969465,0.8091603053435115,1.6335877862595418,-0.2848575712143928,-0.020989505247376312,0.14692653673163417,101.18996321412179,31.775774885923603,2024-09-20 14:40:55.737426688+02:00
1726836055756.958,2.760869565217391,2.7282608695652173,11.315217391304348,2.0,1.4249084249084247,701.7994858611826,-7.6183206106870225,1.0534351145038168,1.6335877862595418,-0.2863568215892054,-0.017991004497751123,0.1454272863568216,101.18996321412179,31.775774885923603,2024-09-20 14:40:55.756957952+02:00
1726836055776.4893,2.7391304347826084,2.7391304347826084,11.239130434782608,2.0,1.4249084249084247,701.7994858611826,-7.572519083969465,0.9007633587786259,1.7709923664122136,-0.2818590704647676,-0.03298350824587706,0.13493253373313344,101.18996321412179,31.775774885923603,2024-09-20 14:40:55.776489216+02:00
1726836055796.0205,2.75,2.7391304347826084,11.33695652173913,2.0,1.4249084249084247,701.7994858611826,-7.511450381679389,1.129770992366412,1.8473282442748091,-0.2863568215892054,-0.014992503748125937,0.1394302848575712,101.18446338714548,31.775774885923603,2024-09-20 14:40:55.796020480+02:00
1726836055815.5518,2.75,2.7065217391304346,11.304347826086957,2.0,1.4249084249084247,701.7994858611826,-7.419847328244274,1.099236641221374,1.6793893129770991,-0.2893553223388306,-0.010494752623688156,0.1454272863568216,101.18996321412179,31.775774885923603,2024-09-20 14:40:55.815551744+02:00
1726836055835.083,2.717391304347826,2.7282608695652173,11.239130434782608,2.0,1.4249084249084247,701.7994858611826,-7.816793893129771,1.4351145038167938,1.8015267175572518,-0.2863568215892054,-0.014992503748125937,0.136431784107946,101.18996321412179,31.775774885923603,2024-09-20 14:40:55.835083008+02:00
1726836055854.6145,2.7065217391304346,2.7065217391304346,11.369565217391305,2.0,1.4249084249084247,701.7994858611826,-7.801526717557252,1.2213740458015268,1.465648854961832,-0.2818590704647676,-0.020989505247376312,0.1394302848575712,101.18996321412179,31.775774885923603,2024-09-20 14:40:55.854614528+02:00
1726836055874.1455,2.717391304347826,2.7282608695652173,11.26086956521739,2.0,1.4234432234432233,702.5218733916624,-7.49618320610687,1.0076335877862594,1.5419847328244274,-0.280359820089955,-0.0074962518740629685,0.1454272863568216,101.18996321412179,31.775774885923603,2024-09-20 14:40:55.874145536+02:00
1726836055893.6768,2.7391304347826084,2.7282608695652173,11.315217391304348,2.0,1.4234432234432233,702.5218733916624,-7.343511450381679,0.9465648854961831,1.9389312977099236,-0.280359820089955,-0.022488755622188904,0.1454272863568216,101.18721329933275,31.775774885923603,2024-09-20 14:40:55.893676800+02:00
1726836055913.208,2.75,2.760869565217391,11.271739130434783,2.0,1.4234432234432233,702.5218733916624,-7.6183206106870225,0.6259541984732824,1.9083969465648853,-0.2863568215892054,-0.022488755622188904,0.1424287856071964,101.18721329933275,31.775774885923603,2024-09-20 14:40:55.913208064+02:00
1726836055932.7393,2.7065217391304346,2.717391304347826,11.33695652173913,2.0,1.4234432234432233,702.5218733916624,-7.7251908396946565,0.8091603053435115,1.5877862595419847,-0.2818590704647676,-0.019490254872563718,0.1409295352323838,101.18996321412179,31.775774885923603,2024-09-20 14:40:55.932739328+02:00
1726836055952.2705,2.6956521739130435,2.7391304347826084,11.315217391304348,2.0,1.4234432234432233,702.5218733916624,-7.297709923664121,0.8854961832061068,1.5419847328244274,-0.2893553223388306,-0.020989505247376312,0.1409295352323838,101.18446338714548,31.775774885923603,2024-09-20 14:40:55.952270592+02:00
1726836055971.8018,2.6956521739130435,2.717391304347826,11.25,2.0,1.4234432234432233,702.5218733916624,-7.206106870229007,0.564885496183206,1.66412213740458,-0.280359820089955,-0.013493253373313342,0.14392803598200898,101.18721329933275,31.775774885923603,2024-09-20 14:40:55.971801856+02:00
1726836055991.333,2.7391304347826084,2.7282608695652173,11.33695652173913,2.0,1.4234432234432233,702.5218733916624,-7.450381679389313,0.5343511450381679,1.8778625954198473,-0.27436281859070466,-0.014992503748125937,0.1394302848575712,101.1927131315126,31.775774885923603,2024-09-20 14:40:55.991333120+02:00
1726836056010.8645,2.760869565217391,2.7282608695652173,11.293478260869565,2.0,1.4234432234432233,702.5218733916624,-7.480916030534351,0.015267175572519083,1.9694656488549618,-0.28785607196401797,-0.010494752623688156,0.14842578710644677,101.18996321412179,31.775774885923603,2024-09-20 14:40:56.010864384+02:00
1726836056030.3955,2.7282608695652173,2.717391304347826,11.293478260869565,2.0,1.4234432234432233,702.5218733916624,-7.3893129770992365,1.0687022900763359,1.7099236641221374,-0.2848575712143928,-0.010494752623688156,0.13193403298350825,101.18721329933275,31.775774885923603,2024-09-20 14:40:56.030395392+02:00
1726836056049.9268,2.6956521739130435,2.6956521739130435,11.326086956521738,2.0,1.4234432234432233,702.5218733916624,-7.32824427480916,1.66412213740458,1.83206106870229,-0.2893553223388306,-0.017991004497751123,0.1409295352323838,101.18977097233171,31.7909426528553,2024-09-20 14:40:56.049926656+02:00
1726836056069.458,2.717391304347826,2.7282608695652173,11.239130434782608,2.0,1.4219780219780218,703.2457496136013,-7.175572519083969,1.3129770992366412,1.6335877862595418,-0.2833583208395802,-0.02848575712143928,0.1454272863568216,101.18977097233171,31.7909426528553,2024-09-20 14:40:56.069457920+02:00
1726836056088.9893,2.760869565217391,2.717391304347826,11.26086956521739,2.0,1.4219780219780218,703.2457496136013,-7.786259541984733,0.732824427480916,1.4809160305343512,-0.2818590704647676,-0.017991004497751123,0.1424287856071964,101.1925209541037,31.7909426528553,2024-09-20 14:40:56.088989184+02:00
1726836056108.5205,2.684782608695652,2.717391304347826,11.391304347826086,2.0,1.4219780219780218,703.2457496136013,-7.908396946564885,0.7022900763358778,1.7404580152671756,-0.2818590704647676,-0.010494752623688156,0.1454272863568216,101.18702099316161,31.7909426528553,2024-09-20 14:40:56.108520448+02:00
1726836056128.0518,2.7065217391304346,2.782608695652174,11.25,2.0,1.4219780219780218,703.2457496136013,-6.885496183206107,0.8244274809160305,1.7251908396946565,-0.28785607196401797,-0.010494752623688156,0.1409295352323838,101.19527093847758,31.7909426528553,2024-09-20 14:40:56.128051712+02:00
1726836056147.583,2.793478260869565,2.6956521739130435,11.434782608695652,2.0,1.4219780219780218,703.2457496136013,-6.99236641221374,0.8702290076335878,1.9236641221374045,-0.2893553223388306,-0.010494752623688156,0.1424287856071964,101.18977097233171,31.7909426528553,2024-09-20 14:40:56.147582976+02:00
1726836056167.1145,2.782608695652174,2.717391304347826,11.239130434782608,2.0,1.4219780219780218,703.2457496136013,-7.419847328244274,1.083969465648855,1.8625954198473282,-0.2848575712143928,-0.01649175412293853,0.13793103448275862,101.18977097233171,31.7909426528553,2024-09-20 14:40:56.167114496+02:00
1726836056186.6455,2.6630434782608696,2.7717391304347827,11.304347826086957,2.0,1.4219780219780218,703.2457496136013,-7.526717557251908,1.083969465648855,1.5267175572519083,-0.2848575712143928,0.0,0.136431784107946,101.18427101659339,31.7909426528553,2024-09-20 14:40:56.186645504+02:00
1726836056206.1768,2.793478260869565,2.717391304347826,11.293478260869565,2.0,1.4219780219780218,703.2457496136013,-7.465648854961832,1.083969465648855,1.0381679389312977,-0.280359820089955,-0.017991004497751123,0.14692653673163417,101.18977097233171,31.7909426528553,2024-09-20 14:40:56.206176768+02:00
1726836056225.708,2.75,2.717391304347826,11.293478260869565,2.0,1.4219780219780218,703.2457496136013,-7.633587786259541,0.8396946564885496,2.030534351145038,-0.2863568215892054,-0.025487256371814093,0.14392803598200898,101.1925209541037,31.7909426528553,2024-09-20 14:40:56.225708032+02:00
1726836056245.2393,2.7282608695652173,2.7391304347826084,11.304347826086957,2.0,1.4205128205128204,703.9711191335741,-7.3893129770992365,1.4961832061068703,1.9236641221374045,-0.2848575712143928,-0.005997001499250375,0.14392803598200898,101.19527093847758,31.7909426528553,2024-09-20 14:40:56.245239296+02:00
1726836056264.7705,2.6956521739130435,2.7282608695652173,11.33695652173913,2.0,1.4219780219780218,703.2457496136013,-7.175572519083969,0.9923664122137404,1.3129770992366412,-0.28785607196401797,-0.017991004497751123,0.14842578710644677,101.1925209541037,31.7909426528553,2024-09-20 14:40:56.264770560+02:00
1726836056284.3018,2.7717391304347827,2.684782608695652,11.33695652173913,2.0,1.4219780219780218,703.2457496136013,-7.557251908396946,0.3969465648854962,1.816793893129771,-0.28785607196401797,-0.010494752623688156,0.1454272863568216,101.18702099316161,31.7909426528553,2024-09-20 14:40:56.284301824+02:00
1726836056303.833,2.717391304347826,2.7717391304347827,11.26086956521739,2.0,1.4219780219780218,703.2457496136013,-7.435114503816793,0.732824427480916,1.3435114503816794,-0.2818590704647676,-0.01199400299850075,0.13493253373313344,101.18977097233171,31.7909426528553,2024-09-20 14:40:56.303833088+02:00
1726836056323.3645,2.7065217391304346,2.6956521739130435,11.326086956521738,2.0,1.4205128205128204,703.9711191335741,-6.99236641221374,1.4198473282442747,1.3587786259541985,-0.2908545727136432,-0.008995502248875561,0.1454272863568216,101.18977097233171,31.7909426528553,2024-09-20 14:40:56.323364608+02:00
1726836056342.8955,2.6956521739130435,2.717391304347826,11.239130434782608,2.0,1.4205128205128204,703.9711191335741,-8.213740458015266,0.7022900763358778,2.198473282442748,-0.2893553223388306,-0.014992503748125937,0.14692653673163417,101.19802092545335,31.7909426528553,2024-09-20 14:40:56.342895616+02:00
1726836056362.4268,2.760869565217391,2.760869565217391,11.58695652173913,2.0,1.4205128205128204,703.9711191335741,-7.633587786259541,0.8549618320610687,2.0763358778625953,-0.2893553223388306,-0.010494752623688156,0.14842578710644677,101.18977097233171,31.7909426528553,2024-09-20 14:40:56.362426880+02:00
1726836056381.958,2.5760869565217392,2.717391304347826,11.282608695652174,2.0,1.4205128205128204,703.9711191335741,-6.427480916030534,1.9236641221374045,1.6030534351145038,-0.280359820089955,-0.017991004497751123,0.14692653673163417,101.18977097233171,31.7909426528553,2024-09-20 14:40:56.381957888+02:00
1726836056401.4893,2.9782608695652173,2.793478260869565,10.989130434782608,2.0,1.4205128205128204,703.9711191335741,-8.122137404580153,1.984732824427481,3.7709923664122136,-0.2818590704647676,-0.014992503748125937,0.14392803598200898,101.18977097233171,31.7909426528553,2024-09-20 14:40:56.401489152+02:00
1726836056421.0205,2.684782608695652,2.543478260869565,11.597826086956522,2.0,1.4205128205128204,703.9711191335741,-6.763358778625954,1.099236641221374,0.7786259541984732,-0.2863568215892054,-0.01199400299850075,0.14692653673163417,101.18977097233171,31.7909426528553,2024-09-20 14:40:56.421020416+02:00
1726836056440.5518,2.6739130434782608,2.869565217391304,11.141304347826086,2.0,1.4205128205128204,703.9711191335741,-7.129770992366412,0.9465648854961831,1.4198473282442747,-0.2818590704647676,-0.01649175412293853,0.14392803598200898,101.19527093847758,31.7909426528553,2024-09-20 14:40:56.440551680+02:00
1726836056460.083,2.793478260869565,2.619565217391304,11.41304347826087,2.0,1.419047619047619,704.6979865771813,-7.740458015267175,1.2671755725190839,1.9236641221374045,-0.2818590704647676,-0.01649175412293853,0.1394302848575712,101.18977097233171,31.7909426528553,2024-09-20 14:40:56.460082944+02:00
1726836056479.6145,2.717391304347826,2.782608695652174,11.271739130434783,2.0,1.419047619047619,704.6979865771813,-7.251908396946565,0.7938931297709924,0.916030534351145,-0.2818590704647676,-0.01649175412293853,0.14392803598200898,101.1925209541037,31.7909426528553,2024-09-20 14:40:56.479614464+02:00
1726836056499.1455,2.717391304347826,2.7065217391304346,11.228260869565217,2.0,1.419047619047619,704.6979865771813,-7.694656488549618,1.7099236641221374,1.8473282442748091,-0.2848575712143928,-0.014992503748125937,0.14692653673163417,101.18977097233171,31.7909426528553,2024-09-20 14:40:56.499145472+02:00
1726836056518.6768,2.75,2.7282608695652173,11.347826086956522,2.0,1.419047619047619,704.6979865771813,-7.526717557251908,1.4809160305343512,1.0076335877862594,-0.27436281859070466,-0.0074962518740629685,0.136431784107946,101.1925209541037,31.7909426528553,2024-09-20 14:40:56.518676736+02:00
1726836056538.208,2.7065217391304346,2.782608695652174,11.26086956521739,2.0,1.419047619047619,704.6979865771813,-7.465648854961832,1.2366412213740459,1.4961832061068703,-0.27586206896551724,-0.014992503748125937,0.14992503748125938,101.18977097233171,31.7909426528553,2024-09-20 14:40:56.538208+02:00
1726836056557.7393,2.6956521739130435,2.7282608695652173,11.304347826086957,2.0,1.4175824175824174,705.4263565891474,-7.603053435114504,0.9770992366412213,1.8931297709923662,-0.28785607196401797,-0.020989505247376312,0.14842578710644677,101.18702099316161,31.7909426528553,2024-09-20 14:40:56.557739264+02:00
1726836056577.2705,2.7282608695652173,2.75,11.315217391304348,2.0,1.4175824175824174,705.4263565891474,-7.419847328244274,0.6106870229007634,1.9694656488549618,-0.2863568215892054,-0.020989505247376312,0.1394302848575712,101.1925209541037,31.7909426528553,2024-09-20 14:40:56.577270528+02:00
1726836056596.8018,2.75,2.7282608695652173,11.304347826086957,2.0,1.4175824175824174,705.4263565891474,-7.450381679389313,0.9770992366412213,2.0,-0.2818590704647676,-0.022488755622188904,0.1424287856071964,101.19527093847758,31.7909426528553,2024-09-20 14:40:56.596801792+02:00
1726836056616.333,2.684782608695652,2.717391304347826,11.347826086956522,2.0,1.4175824175824174,705.4263565891474,-7.66412213740458,0.8091603053435115,1.6946564885496183,-0.280359820089955,-0.017991004497751123,0.136431784107946,101.18977097233171,31.7909426528553,2024-09-20 14:40:56.616333056+02:00
1726836056635.8645,2.684782608695652,2.7065217391304346,11.293478260869565,2.0,1.4175824175824174,705.4263565891474,-7.480916030534351,0.6106870229007634,1.6335877862595418,-0.2908545727136432,-0.01199400299850075,0.14992503748125938,101.18702099316161,31.7909426528553,2024-09-20 14:40:56.635864576+02:00
1726836056655.3955,2.760869565217391,2.717391304347826,11.326086956521738,2.0,1.4175824175824174,705.4263565891474,-7.450381679389313,0.366412213740458,1.8015267175572518,-0.2833583208395802,-0.013493253373313342,0.1424287856071964,101.1925209541037,31.7909426528553,2024-09-20 14:40:56.655395584+02:00
1726836056674.9268,2.75,2.7391304347826084,11.282608695652174,2.0,1.4175824175824174,705.4263565891474,-7.129770992366412,0.04580152671755725,1.618320610687023,-0.2833583208395802,-0.010494752623688156,0.15142428785607195,101.18977097233171,31.7909426528553,2024-09-20 14:40:56.674926848+02:00
1726836056694.458,2.7282608695652173,2.717391304347826,11.315217391304348,2.0,1.416117216117216,706.1562338334196,-7.206106870229007,0.6870229007633587,1.9541984732824427,-0.2863568215892054,-0.01199400299850075,0.1394302848575712,101.1925209541037,31.7909426528553,2024-09-20 14:40:56.694458112+02:00
1726836056713.9893,2.75,2.717391304347826,11.282608695652174,2.0,1.416117216117216,706.1562338334196,-7.374045801526718,0.5801526717557252,2.0610687022900764,-0.2788605697151424,-0.014992503748125937,0.14842578710644677,101.18977097233171,31.7909426528553,2024-09-20 14:40:56.713989376+02:00
1726836056733.5205,2.7282608695652173,2.7391304347826084,11.293478260869565,2.0,1.416117216117216,706.1562338334196,-7.419847328244274,0.7480916030534351,1.8015267175572518,-0.2848575712143928,-0.020989505247376312,0.1424287856071964,101.1925209541037,31.7909426528553,2024-09-20 14:40:56.733520384+02:00
1726836056753.0518,2.75,2.7282608695652173,11.315217391304348,2.0,1.416117216117216,706.1562338334196,-7.343511450381679,0.8854961832061068,1.6335877862595418,-0.2773613193403298,-0.026986506746626684,0.1454272863568216,101.1925209541037,31.7909426528553,2024-09-20 14:40:56.753051648+02:00
1726836056772.583,2.760869565217391,2.717391304347826,11.304347826086957,2.0,1.416117216117216,706.1562338334196,-7.679389312977099,1.0381679389312977,1.816793893129771,-0.280359820089955,-0.022488755622188904,0.13493253373313344,101.18977097233171,31.7909426528553,2024-09-20 14:40:56.772582912+02:00
1726836056792.1145,2.7391304347826084,2.7391304347826084,11.282608695652174,2.0,1.4146520146520145,706.8876229932678,-7.557251908396946,0.9007633587786259,1.5267175572519083,-0.2848575712143928,-0.010494752623688156,0.1409295352323838,101.18977097233171,31.7909426528553,2024-09-20 14:40:56.792114432+02:00
1726836056811.6455,2.75,2.7282608695652173,11.326086956521738,2.0,1.4146520146520145,706.8876229932678,-7.099236641221374,1.0229007633587786,1.7251908396946565,-0.280359820089955,-0.0074962518740629685,0.1454272863568216,101.1925209541037,31.7909426528553,2024-09-20 14:40:56.811645440+02:00
1726836056831.1768,2.75,2.75,11.304347826086957,2.0,1.4146520146520145,706.8876229932678,-7.541984732824427,0.9312977099236641,1.5572519083969465,-0.29385307346326833,-0.0074962518740629685,0.1394302848575712,101.18702099316161,31.7909426528553,2024-09-20 14:40:56.831176704+02:00
1726836056850.708,2.7391304347826084,2.75,11.315217391304348,2.0,1.4146520146520145,706.8876229932678,-7.557251908396946,1.114503816793893,1.8931297709923662,-0.27586206896551724,-0.020989505247376312,0.1409295352323838,101.18977097233171,31.7909426528553,2024-09-20 14:40:56.850707968+02:00
1726836056870.2393,2.75,2.7282608695652173,11.293478260869565,2.0,1.4146520146520145,706.8876229932678,-7.6183206106870225,0.9923664122137404,1.5572519083969465,-0.2833583208395802,-0.022488755622188904,0.14992503748125938,101.1925209541037,31.7909426528553,2024-09-20 14:40:56.870239232+02:00
1726836056889.7705,2.7065217391304346,2.7282608695652173,11.293478260869565,2.0,1.413186813186813,707.6205287713842,-7.419847328244274,1.4198473282442747,1.8625954198473282,-0.2848575712143928,-0.019490254872563718,0.14842578710644677,101.18702099316161,31.7909426528553,2024-09-20 14:40:56.889770496+02:00
1726836056909.3018,2.75,2.7282608695652173,11.326086956521738,2.0,1.413186813186813,707.6205287713842,-7.312977099236641,0.9007633587786259,1.2213740458015268,-0.27586206896551724,-0.014992503748125937,0.1394302848575712,101.18977097233171,31.7909426528553,2024-09-20 14:40:56.909301760+02:00
1726836056928.833,2.7391304347826084,2.7282608695652173,11.282608695652174,2.0,1.413186813186813,707.6205287713842,-7.511450381679389,1.0534351145038168,1.450381679389313,-0.2893553223388306,-0.022488755622188904,0.14842578710644677,101.1925209541037,31.7909426528553,2024-09-20 14:40:56.928833024+02:00
1726836056948.3645,2.75,2.7282608695652173,11.293478260869565,2.0,1.4117216117216116,708.3549558899845,-7.312977099236641,1.2519083969465647,1.7099236641221374,-0.2848575712143928,-0.01199400299850075,0.1409295352323838,101.18977097233171,31.7909426528553,2024-09-20 14:40:56.948364544+02:00
1726836056967.8955,2.7282608695652173,2.7391304347826084,11.326086956521738,2.0,1.413186813186813,707.6205287713842,-7.358778625954198,1.1603053435114503,1.5877862595419847,-0.2908545727136432,-0.013493253373313342,0.1394302848575712,101.18702099316161,31.7909426528553,2024-09-20 14:40:56.967895552+02:00
1726836056987.4268,2.7065217391304346,2.7391304347826084,11.33695652173913,2.0,1.4117216117216116,708.3549558899845,-7.465648854961832,1.1908396946564885,1.5877862595419847,-0.2863568215892054,-0.008995502248875561,0.14992503748125938,101.18702099316161,31.7909426528553,2024-09-20 14:40:56.987426816+02:00
1726836057006.958,2.7065217391304346,2.7282608695652173,11.293478260869565,2.0,1.4117216117216116,708.3549558899845,-7.526717557251908,1.1450381679389312,1.7251908396946565,-0.2893553223388306,-0.020989505247376312,0.14692653673163417,101.1925209541037,31.7909426528553,2024-09-20 14:40:57.006958080+02:00
1726836057026.4893,2.6956521739130435,2.717391304347826,11.293478260869565,2.0,1.4117216117216116,708.3549558899845,-7.6183206106870225,0.8702290076335878,2.015267175572519,-0.2788605697151424,-0.017991004497751123,0.13793103448275862,101.1925209541037,31.7909426528553,2024-09-20 14:40:57.026489344+02:00
1726836057046.0205,2.7065217391304346,2.717391304347826,11.304347826086957,2.0,1.4117216117216116,708.3549558899845,-7.801526717557252,0.6412213740458015,1.618320610687023,-0.2818590704647676,-0.01649175412293853,0.13343328335832083,101.1933735396928,31.795998575747944,2024-09-20 14:40:57.046020608+02:00
1726836057065.5518,2.7391304347826084,2.7282608695652173,11.304347826086957,2.0,1.4117216117216116,708.3549558899845,-7.66412213740458,0.6259541984732824,1.7251908396946565,-0.280359820089955,-0.01649175412293853,0.14692653673163417,101.1933735396928,31.795998575747944,2024-09-20 14:40:57.065551872+02:00
1726836057085.083,2.75,2.717391304347826,11.33695652173913,2.0,1.4117216117216116,708.3549558899845,-7.3893129770992365,0.6870229007633587,1.5114503816793892,-0.2773613193403298,-0.026986506746626684,0.1454272863568216,101.1933735396928,31.795998575747944,2024-09-20 14:40:57.085082880+02:00
1726836057104.6145,2.75,2.717391304347826,11.282608695652174,2.0,1.4102564102564101,709.0909090909091,-7.038167938931298,1.0381679389312977,1.4351145038167938,-0.28785607196401797,-0.017991004497751123,0.14692653673163417,101.1851235351994,31.795998575747944,2024-09-20 14:40:57.104614400+02:00
1726836057124.1455,2.75,2.7282608695652173,11.304347826086957,2.0,1.4102564102564101,709.0909090909091,-7.679389312977099,0.9770992366412213,1.7862595419847327,-0.2863568215892054,-0.01649175412293853,0.15292353823088456,101.18787353409527,31.795998575747944,2024-09-20 14:40:57.124145408+02:00
1726836057143.6768,2.7282608695652173,2.7282608695652173,11.271739130434783,2.0,1.4087912087912087,709.8283931357255,-7.374045801526718,0.8702290076335878,1.4351145038167938,-0.2908545727136432,-0.0074962518740629685,0.14392803598200898,101.1933735396928,31.795998575747944,2024-09-20 14:40:57.143676672+02:00
1726836057163.208,2.6956521739130435,2.7282608695652173,11.304347826086957,2.0,1.4102564102564101,709.0909090909091,-7.145038167938931,0.8396946564885496,1.3282442748091603,-0.2818590704647676,-0.0074962518740629685,0.14392803598200898,101.19062353559308,31.795998575747944,2024-09-20 14:40:57.163207936+02:00
1726836057182.7393,2.717391304347826,2.7391304347826084,11.315217391304348,2.0,1.4087912087912087,709.8283931357255,-7.32824427480916,0.5190839694656488,1.7709923664122136,-0.2848575712143928,-0.014992503748125937,0.15292353823088456,101.18787353409527,31.795998575747944,2024-09-20 14:40:57.182739200+02:00
1726836057202.2705,2.782608695652174,2.7391304347826084,11.304347826086957,2.0,1.4087912087912087,709.8283931357255,-7.709923664122137,0.7480916030534351,1.7404580152671756,-0.2788605697151424,-0.013493253373313342,0.14992503748125938,101.18787353409527,31.795998575747944,2024-09-20 14:40:57.202270464+02:00
1726836057221.8018,2.760869565217391,2.7391304347826084,11.315217391304348,2.0,1.4087912087912087,709.8283931357255,-7.66412213740458,0.9618320610687022,1.648854961832061,-0.2833583208395802,-0.019490254872563718,0.1409295352323838,101.1933735396928,31.795998575747944,2024-09-20 14:40:57.221801728+02:00
1726836057241.333,2.7065217391304346,2.7391304347826084,11.326086956521738,2.0,1.4087912087912087,709.8283931357255,-7.694656488549618,1.4198473282442747,2.1068702290076335,-0.2788605697151424,-0.026986506746626684,0.14392803598200898,101.19062353559308,31.795998575747944,2024-09-20 14:40:57.241332992+02:00
1726836057260.8645,2.7391304347826084,2.7391304347826084,11.293478260869565,2.0,1.4073260073260072,710.5674128058304,-7.404580152671755,1.5572519083969465,1.6946564885496183,-0.280359820089955,-0.01649175412293853,0.13793103448275862,101.1851235351994,31.795998575747944,2024-09-20 14:40:57.260864512+02:00
1726836057280.3955,2.7391304347826084,2.717391304347826,11.315217391304348,2.0,1.4087912087912087,709.8283931357255,-7.6183206106870225,0.8702290076335878,1.7251908396946565,-0.2818590704647676,0.0,0.1454272863568216,101.18787353409527,31.795998575747944,2024-09-20 14:40:57.280395520+02:00
1726836057299.9268,2.7282608695652173,2.7391304347826084,11.282608695652174,2.0,1.4073260073260072,710.5674128058304,-7.480916030534351,0.8549618320610687,1.648854961832061,-0.2863568215892054,-0.017991004497751123,0.14692653673163417,101.1851235351994,31.795998575747944,2024-09-20 14:40:57.299926784+02:00
1726836057319.458,2.717391304347826,2.7391304347826084,11.315217391304348,2.0,1.4073260073260072,710.5674128058304,-7.343511450381679,0.8702290076335878,1.7099236641221374,-0.2848575712143928,-0.005997001499250375,0.1394302848575712,101.19062353559308,31.795998575747944,2024-09-20 14:40:57.319458048+02:00
1726836057338.9893,2.6956521739130435,2.7282608695652173,11.282608695652174,2.0,1.4073260073260072,710.5674128058304,-7.603053435114504,0.8396946564885496,1.8625954198473282,-0.27586206896551724,-0.008995502248875561,0.14992503748125938,101.19062353559308,31.795998575747944,2024-09-20 14:40:57.338989312+02:00
1726836057358.5205,2.684782608695652,2.7391304347826084,11.326086956521738,2.0,1.4073260073260072,710.5674128058304,-7.786259541984733,0.9618320610687022,1.83206106870229,-0.29235382308845576,-0.01649175412293853,0.14392803598200898,101.1851235351994,31.795998575747944,2024-09-20 14:40:57.358520576+02:00
1726836057378.0518,2.7065217391304346,2.717391304347826,11.304347826086957,2.0,1.4073260073260072,710.5674128058304,-7.312977099236641,0.549618320610687,1.5572519083969465,-0.2773613193403298,-0.0239880059970015,0.15292353823088456,101.1933735396928,31.795998575747944,2024-09-20 14:40:57.378051840+02:00
1726836057397.583,2.75,2.7282608695652173,11.326086956521738,2.0,1.4058608058608058,711.3079729025535,-7.1603053435114505,0.2900763358778626,1.6335877862595418,-0.2788605697151424,-0.022488755622188904,0.14842578710644677,101.19062353559308,31.795998575747944,2024-09-20 14:40:57.397583104+02:00
1726836057417.1145,2.7282608695652173,2.7282608695652173,11.271739130434783,2.0,1.4073260073260072,710.5674128058304,-7.114503816793893,0.8091603053435115,1.648854961832061,-0.2848575712143928,-0.022488755622188904,0.14692653673163417,101.19062353559308,31.795998575747944,2024-09-20 14:40:57.417114624+02:00
1726836057436.6455,2.7391304347826084,2.75,11.315217391304348,2.0,1.4058608058608058,711.3079729025535,-7.190839694656488,1.1450381679389312,1.5877862595419847,-0.2863568215892054,-0.026986506746626684,0.13793103448275862,101.18787353409527,31.795998575747944,2024-09-20 14:40:57.436645632+02:00
1726836057456.1768,2.7065217391304346,2.7391304347826084,11.315217391304348,2.0,1.4058608058608058,711.3079729025535,-6.885496183206107,1.4045801526717556,1.7251908396946565,-0.29235382308845576,-0.005997001499250375,0.1424287856071964,101.1933735396928,31.795998575747944,2024-09-20 14:40:57.456176640+02:00
1726836057475.708,2.6956521739130435,2.684782608695652,11.293478260869565,2.0,1.4058608058608058,711.3079729025535,-7.2824427480916025,1.2213740458015268,1.8015267175572518,-0.2833583208395802,-0.013493253373313342,0.13793103448275862,101.1933735396928,31.795998575747944,2024-09-20 14:40:57.475707904+02:00
1726836057495.2393,2.7065217391304346,2.7391304347826084,11.326086956521738,2.0,1.4058608058608058,711.3079729025535,-7.236641221374046,1.0229007633587786,1.3893129770992365,-0.2848575712143928,-0.01649175412293853,0.14692653673163417,101.18787353409527,31.795998575747944,2024-09-20 14:40:57.495239168+02:00
1726836057514.7705,2.7391304347826084,2.7282608695652173,11.304347826086957,2.0,1.4058608058608058,711.3079729025535,-7.419847328244274,0.38167938931297707,1.450381679389313,-0.2833583208395802,0.004497751124437781,0.1424287856071964,101.1933735396928,31.795998575747944,2024-09-20 14:40:57.514770432+02:00
1726836057534.3018,2.717391304347826,2.75,11.304347826086957,2.0,1.4043956043956045,712.0500782472614,-7.648854961832061,0.8702290076335878,1.7862595419847327,-0.2818590704647676,-0.025487256371814093,0.14392803598200898,101.19612354639445,31.795998575747944,2024-09-20 14:40:57.534301696+02:00
1726836057553.833,2.684782608695652,2.7391304347826084,11.315217391304348,2.0,1.4043956043956045,712.0500782472614,-7.633587786259541,0.9312977099236641,1.6946564885496183,-0.2893553223388306,-0.020989505247376312,0.14992503748125938,101.18787353409527,31.795998575747944,2024-09-20 14:40:57.553832960+02:00
1726836057573.3645,2.7282608695652173,2.7282608695652173,11.304347826086957,2.0,1.4043956043956045,712.0500782472614,-7.49618320610687,0.48854961832061067,1.5267175572519083,-0.2833583208395802,-0.025487256371814093,0.14692653673163417,101.18787353409527,31.795998575747944,2024-09-20 14:40:57.573364480+02:00
1726836057592.8955,2.7282608695652173,2.717391304347826,11.293478260869565,2.0,1.4029304029304028,712.7937336814622,-7.465648854961832,0.7480916030534351,1.6793893129770991,-0.2893553223388306,-0.019490254872563718,0.1454272863568216,101.19062353559308,31.795998575747944,2024-09-20 14:40:57.592895488+02:00
1726836057612.4268,2.7282608695652173,2.7282608695652173,11.304347826086957,2.0,1.4029304029304028,712.7937336814622,-7.66412213740458,0.3053435114503817,1.5419847328244274,-0.29685157421289354,-0.013493253373313342,0.14692653673163417,101.18787353409527,31.795998575747944,2024-09-20 14:40:57.612426752+02:00
1726836057631.958,2.684782608695652,2.75,11.326086956521738,2.0,1.4029304029304028,712.7937336814622,-7.465648854961832,0.4580152671755725,1.618320610687023,-0.2863568215892054,-0.01649175412293853,0.14692653673163417,101.18787353409527,31.795998575747944,2024-09-20 14:40:57.631958016+02:00
1726836057651.4893,2.717391304347826,2.7282608695652173,11.304347826086957,2.0,1.4029304029304028,712.7937336814622,-7.511450381679389,0.183206106870229,1.66412213740458,-0.2818590704647676,-0.019490254872563718,0.13343328335832083,101.19062353559308,31.795998575747944,2024-09-20 14:40:57.651489280+02:00
1726836057671.0205,2.75,2.717391304347826,11.293478260869565,2.0,1.4029304029304028,712.7937336814622,-7.419847328244274,-0.015267175572519083,2.045801526717557,-0.28785607196401797,-0.013493253373313342,0.14692653673163417,101.1851235351994,31.795998575747944,2024-09-20 14:40:57.671020544+02:00
1726836057690.5518,2.7391304347826084,2.75,11.293478260869565,2.0,1.4029304029304028,712.7937336814622,-7.236641221374046,-0.16793893129770993,1.7404580152671756,-0.2848575712143928,-0.017991004497751123,0.1409295352323838,101.19062353559308,31.795998575747944,2024-09-20 14:40:57.690551808+02:00
1726836057710.083,2.75,2.7391304347826084,11.304347826086957,2.0,1.4014652014652014,713.5389440669106,-7.435114503816793,0.0916030534351145,1.8015267175572518,-0.28785607196401797,-0.017991004497751123,0.14692653673163417,101.18787353409527,31.795998575747944,2024-09-20 14:40:57.710083072+02:00
1726836057729.6145,2.717391304347826,2.7282608695652173,11.304347826086957,2.0,1.4014652014652014,713.5389440669106,-7.32824427480916,0.5190839694656488,1.7557251908396947,-0.2863568215892054,-0.026986506746626684,0.1454272863568216,101.19612354639445,31.795998575747944,2024-09-20 14:40:57.729614592+02:00
1726836057749.1455,2.75,2.7391304347826084,11.293478260869565,2.0,1.4014652014652014,713.5389440669106,-7.6183206106870225,0.3969465648854962,1.465648854961832,-0.280359820089955,-0.01649175412293853,0.1424287856071964,101.19062353559308,31.795998575747944,2024-09-20 14:40:57.749145600+02:00
1726836057768.6768,2.7391304347826084,2.717391304347826,11.326086956521738,2.0,1.4014652014652014,713.5389440669106,-7.679389312977099,0.3969465648854962,1.7404580152671756,-0.2833583208395802,-0.005997001499250375,0.1454272863568216,101.18787353409527,31.795998575747944,2024-09-20 14:40:57.768676864+02:00
1726836057788.208,2.7282608695652173,2.7717391304347827,11.282608695652174,2.0,1.4014652014652014,713.5389440669106,-7.374045801526718,0.2900763358778626,1.6793893129770991,-0.2818590704647676,-0.008995502248875561,0.14392803598200898,101.18787353409527,31.795998575747944,2024-09-20 14:40:57.788208128+02:00
1726836057807.7393,2.75,2.7391304347826084,11.304347826086957,2.0,1.4014652014652014,713.5389440669106,-7.511450381679389,0.6412213740458015,1.5877862595419847,-0.2833583208395802,-0.013493253373313342,0.14842578710644677,101.1851235351994,31.795998575747944,2024-09-20 14:40:57.807739136+02:00
1726836057827.2705,2.75,2.75,11.315217391304348,2.0,1.4,714.2857142857143,-7.358778625954198,0.8244274809160305,1.6030534351145038,-0.28785607196401797,-0.01199400299850075,0.14842578710644677,101.18787353409527,31.795998575747944,2024-09-20 14:40:57.827270400+02:00
1726836057846.8018,2.75,2.75,11.293478260869565,2.0,1.4,714.2857142857143,-7.190839694656488,0.3511450381679389,1.7251908396946565,-0.2818590704647676,-0.017991004497751123,0.1409295352323838,101.19062353559308,31.795998575747944,2024-09-20 14:40:57.846801664+02:00
1726836057866.333,2.75,2.717391304347826,11.304347826086957,2.0,1.4,714.2857142857143,-7.49618320610687,0.42748091603053434,1.7862595419847327,-0.28785607196401797,-0.01649175412293853,0.1409295352323838,101.18787353409527,31.795998575747944,2024-09-20 14:40:57.866332928+02:00
1726836057885.8645,2.760869565217391,2.7282608695652173,11.33695652173913,2.0,1.4,714.2857142857143,-7.511450381679389,0.5190839694656488,1.8778625954198473,-0.2863568215892054,-0.025487256371814093,0.1454272863568216,101.18787353409527,31.795998575747944,2024-09-20 14:40:57.885864448+02:00
1726836057905.3955,2.760869565217391,2.7282608695652173,11.293478260869565,2.0,1.4,714.2857142857143,-7.694656488549618,0.5801526717557252,2.045801526717557,-0.2833583208395802,0.0014992503748125937,0.1394302848575712,101.19062353559308,31.795998575747944,2024-09-20 14:40:57.905395456+02:00
1726836057924.9268,2.75,2.7391304347826084,11.304347826086957,2.0,1.4,714.2857142857143,-7.312977099236641,0.7480916030534351,1.83206106870229,-0.2863568215892054,-0.013493253373313342,0.1394302848575712,101.19062353559308,31.795998575747944,2024-09-20 14:40:57.924926720+02:00
1726836057944.458,2.75,2.760869565217391,11.282608695652174,2.0,1.3985347985347985,715.03404924044,-7.49618320610687,0.7480916030534351,2.0610687022900764,-0.280359820089955,-0.0014992503748125937,0.1454272863568216,101.19062353559308,31.795998575747944,2024-09-20 14:40:57.944457984+02:00
1726836057963.9893,2.760869565217391,2.7282608695652173,11.315217391304348,2.0,1.3985347985347985,715.03404924044,-7.49618320610687,0.8091603053435115,1.8931297709923662,-0.2773613193403298,-0.010494752623688156,0.13793103448275862,101.1933735396928,31.795998575747944,2024-09-20 14:40:57.963989248+02:00
1726836057983.5205,2.7391304347826084,2.7282608695652173,11.293478260869565,2.0,1.3985347985347985,715.03404924044,-7.801526717557252,0.7480916030534351,1.8473282442748091,-0.28785607196401797,0.0,0.1409295352323838,101.19062353559308,31.795998575747944,2024-09-20 14:40:57.983520512+02:00
1726836058003.0518,2.7391304347826084,2.717391304347826,11.315217391304348,2.0,1.397069597069597,715.7839538542213,-7.603053435114504,0.5801526717557252,1.8015267175572518,-0.280359820089955,-0.01649175412293853,0.1394302848575712,101.18787353409527,31.795998575747944,2024-09-20 14:40:58.003051776+02:00
1726836058022.583,2.760869565217391,2.7282608695652173,11.293478260869565,2.0,1.397069597069597,715.7839538542213,-7.862595419847328,0.7022900763358778,1.4961832061068703,-0.2818590704647676,-0.022488755622188904,0.13493253373313344,101.1851235351994,31.795998575747944,2024-09-20 14:40:58.022583040+02:00
1726836058042.1145,2.782608695652174,2.7391304347826084,11.315217391304348,2.0,1.3985347985347985,715.03404924044,-7.709923664122137,0.6870229007633587,1.66412213740458,-0.2863568215892054,-0.0239880059970015,0.1424287856071964,101.1859760566025,31.801054498931627,2024-09-20 14:40:58.042114560+02:00
1726836058061.6455,2.760869565217391,2.7282608695652173,11.315217391304348,2.0,1.397069597069597,715.7839538542213,-7.572519083969465,0.8549618320610687,1.6793893129770991,-0.2788605697151424,-0.029985007496251874,0.1454272863568216,101.19147610165157,31.801054498931627,2024-09-20 14:40:58.061645568+02:00
1726836058081.1768,2.75,2.7391304347826084,11.304347826086957,2.0,1.397069597069597,715.7839538542213,-7.816793893129771,1.0534351145038168,1.7862595419847327,-0.2818590704647676,-0.025487256371814093,0.13493253373313344,101.19697615710852,31.801054498931627,2024-09-20 14:40:58.081176832+02:00
1726836058100.708,2.7717391304347827,2.75,11.304347826086957,2.0,1.397069597069597,715.7839538542213,-7.786259541984733,1.2213740458015268,1.6335877862595418,-0.29385307346326833,-0.013493253373313342,0.1394302848575712,101.19147610165157,31.801054498931627,2024-09-20 14:40:58.100708096+02:00
1726836058120.2393,2.760869565217391,2.7282608695652173,11.33695652173913,2.0,1.397069597069597,715.7839538542213,-7.908396946564885,1.297709923664122,1.5419847328244274,-0.28785607196401797,-0.01649175412293853,0.1424287856071964,101.19147610165157,31.801054498931627,2024-09-20 14:40:58.120239360+02:00
1726836058139.7705,2.7065217391304346,2.717391304347826,11.315217391304348,2.0,1.397069597069597,715.7839538542213,-7.969465648854961,1.1450381679389312,1.648854961832061,-0.2863568215892054,-0.005997001499250375,0.1394302848575712,101.19422612807907,31.801054498931627,2024-09-20 14:40:58.139770624+02:00
1726836058159.3018,2.75,2.717391304347826,11.315217391304348,2.0,1.397069597069597,715.7839538542213,-7.6183206106870225,0.8702290076335878,1.7709923664122136,-0.28785607196401797,-0.005997001499250375,0.1454272863568216,101.19147610165157,31.801054498931627,2024-09-20 14:40:58.159301632+02:00
1726836058178.833,2.760869565217391,2.7282608695652173,11.293478260869565,2.0,1.397069597069597,715.7839538542213,-7.603053435114504,0.8549618320610687,1.4351145038167938,-0.2848575712143928,-0.014992503748125937,0.1409295352323838,101.19422612807907,31.801054498931627,2024-09-20 14:40:58.178832896+02:00
1726836058198.3645,2.7391304347826084,2.7282608695652173,11.282608695652174,2.0,1.397069597069597,715.7839538542213,-7.694656488549618,1.3587786259541985,1.6030534351145038,-0.2848575712143928,-0.025487256371814093,0.1394302848575712,101.19147610165157,31.801054498931627,2024-09-20 14:40:58.198364416+02:00
1726836058217.8955,2.684782608695652,2.7282608695652173,11.315217391304348,2.0,1.3956043956043955,716.5354330708661,-7.541984732824427,0.7786259541984732,1.3587786259541985,-0.2908545727136432,-0.020989505247376312,0.14992503748125938,101.19422612807907,31.801054498931627,2024-09-20 14:40:58.217895424+02:00
1726836058237.4268,2.684782608695652,2.717391304347826,11.315217391304348,2.0,1.3956043956043955,716.5354330708661,-6.809160305343511,0.6106870229007634,1.6030534351145038,-0.2863568215892054,-0.020989505247376312,0.1454272863568216,101.1859760566025,31.801054498931627,2024-09-20 14:40:58.237426688+02:00
1726836058256.958,2.75,2.7717391304347827,11.293478260869565,2.0,1.3956043956043955,716.5354330708661,-6.961832061068702,-0.21374045801526717,1.6030534351145038,-0.2848575712143928,-0.004497751124437781,0.15292353823088456,101.19697615710852,31.801054498931627,2024-09-20 14:40:58.256957952+02:00
1726836058276.4893,2.7717391304347827,2.7282608695652173,11.326086956521738,2.0,1.3956043956043955,716.5354330708661,-7.0534351145038165,0.33587786259541985,1.3587786259541985,-0.28785607196401797,-0.019490254872563718,0.1409295352323838,101.1859760566025,31.801054498931627,2024-09-20 14:40:58.276489216+02:00
1726836058296.0205,2.7282608695652173,2.7282608695652173,11.293478260869565,2.0,1.3956043956043955,716.5354330708661,-7.2824427480916025,0.16793893129770993,1.4809160305343512,-0.280359820089955,-0.005997001499250375,0.1454272863568216,101.18872607782603,31.801054498931627,2024-09-20 14:40:58.296020480+02:00
1726836058315.5518,2.75,2.75,11.315217391304348,2.0,1.3956043956043955,716.5354330708661,-7.450381679389313,0.4427480916030534,1.5419847328244274,-0.2818590704647676,-0.013493253373313342,0.14392803598200898,101.18872607782603,31.801054498931627,2024-09-20 14:40:58.315551744+02:00
1726836058335.083,2.75,2.7282608695652173,11.326086956521738,2.0,1.3956043956043955,716.5354330708661,-7.786259541984733,0.6259541984732824,1.8015267175572518,-0.27586206896551724,-0.019490254872563718,0.1424287856071964,101.19147610165157,31.801054498931627,2024-09-20 14:40:58.335083008+02:00
1726836058354.6145,2.793478260869565,2.7391304347826084,11.271739130434783,2.0,1.394139194139194,717.2884918549659,-7.206106870229007,0.4580152671755725,1.3740458015267174,-0.2833583208395802,-0.022488755622188904,0.13193403298350825,101.18872607782603,31.801054498931627,2024-09-20 14:40:58.354614528+02:00
1726836058374.1455,2.8369565217391304,2.7282608695652173,11.282608695652174,2.0,1.3956043956043955,716.5354330708661,-7.572519083969465,0.7480916030534351,1.1755725190839694,-0.2848575712143928,-0.022488755622188904,0.15442278860569714,101.1859760566025,31.801054498931627,2024-09-20 14:40:58.374145536+02:00
1726836058393.6768,2.8152173913043477,2.75,11.315217391304348,2.0,1.394139194139194,717.2884918549659,-7.8473282442748085,1.7557251908396947,1.114503816793893,-0.2833583208395802,-0.0239880059970015,0.1394302848575712,101.19147610165157,31.801054498931627,2024-09-20 14:40:58.393676800+02:00
1726836058413.208,2.760869565217391,2.7391304347826084,11.315217391304348,2.0,1.394139194139194,717.2884918549659,-8.106870229007633,2.427480916030534,1.6030534351145038,-0.28785607196401797,-0.013493253373313342,0.1424287856071964,101.18872607782603,31.801054498931627,2024-09-20 14:40:58.413208064+02:00
1726836058432.7393,2.717391304347826,2.7282608695652173,11.304347826086957,2.0,1.394139194139194,717.2884918549659,-8.076335877862595,2.5343511450381677,1.2519083969465647,-0.2908545727136432,-0.01649175412293853,0.1394302848575712,101.18872607782603,31.801054498931627,2024-09-20 14:40:58.432739328+02:00
1726836058452.2705,2.7282608695652173,2.7391304347826084,11.293478260869565,2.0,1.394139194139194,717.2884918549659,-8.122137404580153,2.091603053435114,1.2671755725190839,-0.2863568215892054,-0.013493253373313342,0.14392803598200898,101.19147610165157,31.801054498931627,2024-09-20 14:40:58.452270592+02:00
1726836058471.8018,2.717391304347826,2.7391304347826084,11.293478260869565,2.0,1.394139194139194,717.2884918549659,-7.679389312977099,1.7862595419847327,1.4351145038167938,-0.2788605697151424,-0.010494752623688156,0.1454272863568216,101.19422612807907,31.801054498931627,2024-09-20 14:40:58.471801856+02:00
1726836058491.333,2.7282608695652173,2.717391304347826,11.293478260869565,2.0,1.394139194139194,717.2884918549659,-7.32824427480916,1.3740458015267174,1.8473282442748091,-0.2848575712143928,-0.0074962518740629685,0.14992503748125938,101.19147610165157,31.801054498931627,2024-09-20 14:40:58.491333120+02:00
1726836058510.8645,2.6956521739130435,2.7282608695652173,11.304347826086957,2.0,1.394139194139194,717.2884918549659,-7.694656488549618,0.9007633587786259,1.83206106870229,-0.2848575712143928,-0.017991004497751123,0.1394302848575712,101.19697615710852,31.801054498931627,2024-09-20 14:40:58.510864384+02:00
1726836058530.3955,2.6739130434782608,2.717391304347826,11.293478260869565,2.0,1.394139194139194,717.2884918549659,-7.633587786259541,0.8244274809160305,2.183206106870229,-0.2863568215892054,-0.026986506746626684,0.1424287856071964,101.19147610165157,31.801054498931627,2024-09-20 14:40:58.530395392+02:00
1726836058549.9268,2.717391304347826,2.7391304347826084,11.293478260869565,2.0,1.394139194139194,717.2884918549659,-7.114503816793893,0.5954198473282443,2.519083969465649,-0.2848575712143928,-0.019490254872563718,0.1409295352323838,101.19147610165157,31.801054498931627,2024-09-20 14:40:58.549926656+02:00
1726836058569.458,2.760869565217391,2.717391304347826,11.326086956521738,2.0,1.394139194139194,717.2884918549659,-7.465648854961832,0.04580152671755725,2.5801526717557253,-0.29385307346326833,-0.017991004497751123,0.136431784107946,101.1859760566025,31.801054498931627,2024-09-20 14:40:58.569457920+02:00
1726836058588.9893,2.6956521739130435,2.7391304347826084,11.315217391304348,2.0,1.394139194139194,717.2884918549659,-7.480916030534351,0.7633587786259541,2.16793893129771,-0.2863568215892054,-0.0074962518740629685,0.1409295352323838,101.18872607782603,31.801054498931627,2024-09-20 14:40:58.588989184+02:00
1726836058608.5205,2.684782608695652,2.75,11.315217391304348,2.0,1.394139194139194,717.2884918549659,-7.648854961832061,0.6870229007633587,2.381679389312977,-0.2818590704647676,-0.01649175412293853,0.14392803598200898,101.18872607782603,31.801054498931627,2024-09-20 14:40:58.608520448+02:00
1726836058628.0518,2.7391304347826084,2.7282608695652173,11.282608695652174,2.0,1.394139194139194,717.2884918549659,-7.816793893129771,0.16793893129770993,2.900763358778626,-0.28785607196401797,0.0014992503748125937,0.13493253373313344,101.19422612807907,31.801054498931627,2024-09-20 14:40:58.628051712+02:00
1726836058647.583,2.7717391304347827,2.7065217391304346,11.315217391304348,2.0,1.394139194139194,717.2884918549659,-7.908396946564885,0.2900763358778626,3.0381679389312977,-0.2848575712143928,0.0014992503748125937,0.14842578710644677,101.1859760566025,31.801054498931627,2024-09-20 14:40:58.647582976+02:00
1726836058667.1145,2.7717391304347827,2.717391304347826,11.271739130434783,2.0,1.394139194139194,717.2884918549659,-8.0,0.6870229007633587,2.519083969465649,-0.280359820089955,-0.019490254872563718,0.1424287856071964,101.18872607782603,31.801054498931627,2024-09-20 14:40:58.667114496+02:00
1726836058686.6455,2.75,2.717391304347826,11.304347826086957,2.0,1.394139194139194,717.2884918549659,-7.679389312977099,0.9007633587786259,2.610687022900763,-0.2848575712143928,-0.017991004497751123,0.14842578710644677,101.19147610165157,31.801054498931627,2024-09-20 14:40:58.686645504+02:00
1726836058706.1768,2.7391304347826084,2.717391304347826,11.315217391304348,2.0,1.394139194139194,717.2884918549659,-7.816793893129771,1.2671755725190839,2.3664122137404577,-0.2788605697151424,-0.025487256371814093,0.1394302848575712,101.18872607782603,31.801054498931627,2024-09-20 14:40:58.706176768+02:00
1726836058725.708,2.7065217391304346,2.7065217391304346,11.315217391304348,2.0,1.3956043956043955,716.5354330708661,-7.83206106870229,1.297709923664122,1.7557251908396947,-0.28785607196401797,-0.0239880059970015,0.14992503748125938,101.1859760566025,31.801054498931627,2024-09-20 14:40:58.725708032+02:00
1726836058745.2393,2.7065217391304346,2.7391304347826084,11.293478260869565,2.0,1.3956043956043955,716.5354330708661,-7.66412213740458,1.1908396946564885,1.8473282442748091,-0.2833583208395802,-0.010494752623688156,0.1454272863568216,101.18047602196127,31.801054498931627,2024-09-20 14:40:58.745239296+02:00
1726836058764.7705,2.7282608695652173,2.7282608695652173,11.326086956521738,2.0,1.3956043956043955,716.5354330708661,-7.419847328244274,1.3435114503816794,1.7251908396946565,-0.2863568215892054,-0.013493253373313342,0.1454272863568216,101.19147610165157,31.801054498931627,2024-09-20 14:40:58.764770560+02:00
1726836058784.3018,2.760869565217391,2.6956521739130435,11.326086956521738,2.0,1.397069597069597,715.7839538542213,-7.694656488549618,1.450381679389313,1.282442748091603,-0.2863568215892054,-0.0074962518740629685,0.14392803598200898,101.1859760566025,31.801054498931627,2024-09-20 14:40:58.784301824+02:00
1726836058803.833,2.6956521739130435,2.7065217391304346,11.282608695652174,2.0,1.397069597069597,715.7839538542213,-7.236641221374046,1.648854961832061,1.4045801526717556,-0.2773613193403298,-0.005997001499250375,0.14842578710644677,101.19147610165157,31.801054498931627,2024-09-20 14:40:58.803833088+02:00
1726836058823.3645,2.7065217391304346,2.6956521739130435,11.293478260869565,2.0,1.3985347985347985,715.03404924044,-7.465648854961832,1.5572519083969465,1.3129770992366412,-0.2908545727136432,-0.017991004497751123,0.1454272863568216,101.1859760566025,31.801054498931627,2024-09-20 14:40:58.823364608+02:00
1726836058842.8955,2.717391304347826,2.7065217391304346,11.358695652173912,2.0,1.3985347985347985,715.03404924044,-7.374045801526718,1.2519083969465647,1.1908396946564885,-0.280359820089955,-0.0239880059970015,0.14842578710644677,101.19422612807907,31.801054498931627,2024-09-20 14:40:58.842895616+02:00
1726836058862.4268,2.684782608695652,2.7391304347826084,11.26086956521739,2.0,1.3985347985347985,715.03404924044,-7.2824427480916025,1.0687022900763359,1.3587786259541985,-0.2848575712143928,-0.022488755622188904,0.1394302848575712,101.19147610165157,31.801054498931627,2024-09-20 14:40:58.862426880+02:00
1726836058881.958,2.75,2.7391304347826084,11.304347826086957,2.0,1.3985347985347985,715.03404924044,-7.0534351145038165,0.8396946564885496,1.3587786259541985,-0.29535232383808097,-0.022488755622188904,0.13793103448275862,101.18872607782603,31.801054498931627,2024-09-20 14:40:58.881957888+02:00
1726836058901.4893,2.7391304347826084,2.7391304347826084,11.315217391304348,2.0,1.4,714.2857142857143,-7.435114503816793,0.41221374045801523,1.7099236641221374,-0.2848575712143928,-0.01199400299850075,0.1454272863568216,101.18872607782603,31.801054498931627,2024-09-20 14:40:58.901489152+02:00
1726836058921.0205,2.717391304347826,2.717391304347826,11.304347826086957,2.0,1.4,714.2857142857143,-7.0534351145038165,0.4427480916030534,1.3893129770992365,-0.28785607196401797,-0.008995502248875561,0.14692653673163417,101.18872607782603,31.801054498931627,2024-09-20 14:40:58.921020416+02:00
1726836058940.5518,2.717391304347826,2.7065217391304346,11.26086956521739,2.0,1.4014652014652014,713.5389440669106,-7.221374045801526,0.48854961832061067,1.7251908396946565,-0.28785607196401797,-0.014992503748125937,0.14692653673163417,101.19422612807907,31.801054498931627,2024-09-20 14:40:58.940551680+02:00
1726836058960.083,2.6739130434782608,2.75,11.315217391304348,2.0,1.4014652014652014,713.5389440669106,-7.129770992366412,0.16793893129770993,1.8015267175572518,-0.2863568215892054,-0.01199400299850075,0.14992503748125938,101.19147610165157,31.801054498931627,2024-09-20 14:40:58.960082944+02:00
1726836058979.6145,2.760869565217391,2.7065217391304346,11.315217391304348,2.0,1.4014652014652014,713.5389440669106,-7.343511450381679,-0.015267175572519083,1.83206106870229,-0.2848575712143928,-0.01649175412293853,0.14392803598200898,101.19422612807907,31.801054498931627,2024-09-20 14:40:58.979614464+02:00
1726836058999.1455,2.75,2.7282608695652173,11.293478260869565,2.0,1.4014652014652014,713.5389440669106,-7.83206106870229,-0.21374045801526717,2.33587786259542,-0.2818590704647676,-0.0239880059970015,0.14392803598200898,101.18872607782603,31.801054498931627,2024-09-20 14:40:58.999145472+02:00
1726836059018.6768,2.760869565217391,2.7065217391304346,11.304347826086957,2.0,1.4029304029304028,712.7937336814622,-8.15267175572519,0.2595419847328244,2.33587786259542,-0.27586206896551724,-0.025487256371814093,0.1424287856071964,101.19697615710852,31.801054498931627,2024-09-20 14:40:59.018676736+02:00
1726836059038.208,2.7282608695652173,2.7065217391304346,11.304347826086957,2.0,1.4043956043956045,712.0500782472614,-7.816793893129771,0.366412213740458,2.198473282442748,-0.2893553223388306,-0.0239880059970015,0.1454272863568216,101.19782877061961,31.806110422406345,2024-09-20 14:40:59.038208+02:00
1726836059057.7393,2.7717391304347827,2.717391304347826,11.315217391304348,2.0,1.4043956043956045,712.0500782472614,-7.7251908396946565,0.5190839694656488,2.213740458015267,-0.280359820089955,-0.008995502248875561,0.1454272863568216,101.19232867050698,31.806110422406345,2024-09-20 14:40:59.057739264+02:00
1726836059077.2705,2.782608695652174,2.7065217391304346,11.33695652173913,2.0,1.4058608058608058,711.3079729025535,-7.221374045801526,0.6412213740458015,2.0610687022900764,-0.2818590704647676,-0.005997001499250375,0.1394302848575712,101.1950787192623,31.806110422406345,2024-09-20 14:40:59.077270528+02:00
1726836059096.8018,2.75,2.717391304347826,11.293478260869565,2.0,1.4073260073260072,710.5674128058304,-7.49618320610687,0.9465648854961831,1.9389312977099236,-0.2833583208395802,-0.0074962518740629685,0.14842578710644677,101.19232867050698,31.806110422406345,2024-09-20 14:40:59.096801792+02:00
1726836059116.333,2.782608695652174,2.7065217391304346,11.304347826086957,2.0,1.4073260073260072,710.5674128058304,-7.511450381679389,1.099236641221374,1.6793893129770991,-0.2893553223388306,-0.0074962518740629685,0.14692653673163417,101.1950787192623,31.806110422406345,2024-09-20 14:40:59.116333056+02:00
1726836059135.8645,2.760869565217391,2.6956521739130435,11.315217391304348,2.0,1.4087912087912087,709.8283931357255,-7.816793893129771,1.4961832061068703,1.8931297709923662,-0.280359820089955,-0.014992503748125937,0.1454272863568216,101.19782877061961,31.806110422406345,2024-09-20 14:40:59.135864576+02:00
1726836059155.3955,2.75,2.7065217391304346,11.304347826086957,2.0,1.4102564102564101,709.0909090909091,-7.49618320610687,1.7099236641221374,1.2061068702290076,-0.2833583208395802,0.004497751124437781,0.1424287856071964,101.1950787192623,31.806110422406345,2024-09-20 14:40:59.155395584+02:00
1726836059174.9268,2.7282608695652173,2.7065217391304346,11.315217391304348,2.0,1.4102564102564101,709.0909090909091,-6.793893129770992,1.3740458015267174,1.4045801526717556,-0.2818590704647676,-0.005997001499250375,0.14392803598200898,101.19232867050698,31.806110422406345,2024-09-20 14:40:59.174926848+02:00
1726836059194.458,2.760869565217391,2.7282608695652173,11.293478260869565,2.0,1.4117216117216116,708.3549558899845,-7.374045801526718,1.7099236641221374,1.450381679389313,-0.2698650674662669,-0.019490254872563718,0.1454272863568216,101.18957862435369,31.806110422406345,2024-09-20 14:40:59.194458112+02:00
1726836059213.9893,2.75,2.6956521739130435,11.326086956521738,2.0,1.413186813186813,707.6205287713842,-7.450381679389313,1.83206106870229,1.4351145038167938,-0.27586206896551724,-0.022488755622188904,0.14692653673163417,101.1868285808024,31.806110422406345,2024-09-20 14:40:59.213989376+02:00
1726836059233.5205,2.652173913043478,2.75,11.293478260869565,2.0,1.4146520146520145,706.8876229932678,-7.786259541984733,1.4961832061068703,1.5114503816793892,-0.2848575712143928,-0.010494752623688156,0.13493253373313344,101.1950787192623,31.806110422406345,2024-09-20 14:40:59.233520384+02:00
1726836059253.0518,2.684782608695652,2.7282608695652173,11.347826086956522,2.0,1.4146520146520145,706.8876229932678,-7.694656488549618,0.8549618320610687,1.465648854961832,-0.2833583208395802,-0.017991004497751123,0.1454272863568216,101.18957862435369,31.806110422406345,2024-09-20 14:40:59.253051648+02:00
1726836059272.583,2.684782608695652,2.7282608695652173,11.326086956521738,2.0,1.416117216117216,706.1562338334196,-7.435114503816793,0.015267175572519083,1.4045801526717556,-0.28785607196401797,-0.01199400299850075,0.1394302848575712,101.1950787192623,31.806110422406345,2024-09-20 14:40:59.272582912+02:00
1726836059292.1145,2.782608695652174,2.717391304347826,11.26086956521739,2.0,1.4175824175824174,705.4263565891474,-7.526717557251908,0.2900763358778626,1.4961832061068703,-0.2848575712143928,-0.008995502248875561,0.14842578710644677,101.1868285808024,31.806110422406345,2024-09-20 14:40:59.292114432+02:00
1726836059311.6455,2.7391304347826084,2.717391304347826,11.304347826086957,2.0,1.4175824175824174,705.4263565891474,-7.2824427480916025,0.549618320610687,1.4045801526717556,-0.280359820089955,-0.019490254872563718,0.1454272863568216,101.18957862435369,31.806110422406345,2024-09-20 14:40:59.311645440+02:00
1726836059331.1768,2.7065217391304346,2.7282608695652173,11.282608695652174,2.0,1.419047619047619,704.6979865771813,-7.236641221374046,0.3511450381679389,1.3740458015267174,-0.280359820089955,-0.014992503748125937,0.1409295352323838,101.18957862435369,31.806110422406345,2024-09-20 14:40:59.331176704+02:00
1726836059350.708,2.7065217391304346,2.7282608695652173,11.315217391304348,2.0,1.4205128205128204,703.9711191335741,-7.175572519083969,0.061068702290076333,1.5877862595419847,-0.2788605697151424,-0.014992503748125937,0.1454272863568216,101.19782877061961,31.806110422406345,2024-09-20 14:40:59.350707968+02:00
1726836059370.2393,2.7391304347826084,2.75,11.304347826086957,2.0,1.4205128205128204,703.9711191335741,-7.465648854961832,-0.13740458015267176,1.4809160305343512,-0.28785607196401797,-0.034482758620689655,0.1454272863568216,101.18957862435369,31.806110422406345,2024-09-20 14:40:59.370239232+02:00
1726836059389.7705,2.75,2.7282608695652173,11.33695652173913,2.0,1.4219780219780218,703.2457496136013,-7.679389312977099,0.47328244274809156,1.6335877862595418,-0.2848575712143928,-0.014992503748125937,0.14842578710644677,101.1868285808024,31.806110422406345,2024-09-20 14:40:59.389770496+02:00
1726836059409.3018,2.7391304347826084,2.7391304347826084,11.326086956521738,2.0,1.4219780219780218,703.2457496136013,-7.694656488549618,0.38167938931297707,1.8625954198473282,-0.2863568215892054,-0.010494752623688156,0.1394302848575712,101.1950787192623,31.806110422406345,2024-09-20 14:40:59.409301760+02:00
1726836059428.833,2.75,2.7282608695652173,11.304347826086957,2.0,1.4234432234432233,702.5218733916624,-7.816793893129771,0.4427480916030534,1.7099236641221374,-0.2908545727136432,-0.013493253373313342,0.14392803598200898,101.18957862435369,31.806110422406345,2024-09-20 14:40:59.428833024+02:00
1726836059448.3645,2.7717391304347827,2.7065217391304346,11.326086956521738,2.0,1.4249084249084247,701.7994858611826,-7.9541984732824424,0.5190839694656488,1.8625954198473282,-0.2893553223388306,-0.0014992503748125937,0.15292353823088456,101.18132850150583,31.806110422406345,2024-09-20 14:40:59.448364544+02:00
1726836059467.8955,2.760869565217391,2.7282608695652173,11.293478260869565,2.0,1.4249084249084247,701.7994858611826,-7.435114503816793,0.6870229007633587,2.1374045801526718,-0.29235382308845576,-0.0074962518740629685,0.14992503748125938,101.18957862435369,31.806110422406345,2024-09-20 14:40:59.467895552+02:00
1726836059487.4268,2.7391304347826084,2.7065217391304346,11.304347826086957,2.0,1.4263736263736262,701.0785824345147,-7.8473282442748085,0.33587786259541985,1.9083969465648853,-0.280359820089955,-0.020989505247376312,0.1409295352323838,101.19232867050698,31.806110422406345,2024-09-20 14:40:59.487426816+02:00
1726836059506.958,2.717391304347826,2.7282608695652173,11.315217391304348,2.0,1.4263736263736262,701.0785824345147,-7.343511450381679,0.4427480916030534,1.9694656488549618,-0.2773613193403298,-0.013493253373313342,0.1394302848575712,101.19232867050698,31.806110422406345,2024-09-20 14:40:59.506958080+02:00
1726836059526.4893,2.760869565217391,2.717391304347826,11.271739130434783,2.0,1.4278388278388277,700.3591585428426,-7.862595419847328,0.38167938931297707,2.091603053435114,-0.2818590704647676,-0.017991004497751123,0.15142428785607195,101.1840785398531,31.806110422406345,2024-09-20 14:40:59.526489344+02:00
1726836059546.0205,2.75,2.717391304347826,11.293478260869565,2.0,1.4293040293040291,699.6412096360841,-7.557251908396946,0.5801526717557252,1.9236641221374045,-0.2893553223388306,-0.010494752623688156,0.1454272863568216,101.19232867050698,31.806110422406345,2024-09-20 14:40:59.546020608+02:00
1726836059565.5518,2.75,2.717391304347826,11.380434782608695,2.0,1.4293040293040291,699.6412096360841,-7.236641221374046,1.3435114503816794,1.6946564885496183,-0.2908545727136432,-0.0239880059970015,0.15142428785607195,101.19232867050698,31.806110422406345,2024-09-20 14:40:59.565551872+02:00
1726836059585.083,2.75,2.7391304347826084,11.239130434782608,2.0,1.4307692307692308,698.9247311827958,-7.404580152671755,0.6564885496183206,1.7557251908396947,-0.2863568215892054,0.0,0.14392803598200898,101.18957862435369,31.806110422406345,2024-09-20 14:40:59.585082880+02:00
1726836059604.6145,2.8043478260869565,2.6956521739130435,11.326086956521738,2.0,1.432234432234432,698.2097186700769,-7.648854961832061,1.6335877862595418,1.9236641221374045,-0.2833583208395802,-0.01649175412293853,0.1424287856071964,101.1868285808024,31.806110422406345,2024-09-20 14:40:59.604614400+02:00
1726836059624.1455,2.6956521739130435,2.7065217391304346,11.239130434782608,2.0,1.4336996336996337,697.4961676034748,-7.419847328244274,1.7709923664122136,1.3435114503816794,-0.28785607196401797,-0.013493253373313342,0.14842578710644677,101.1868285808024,31.806110422406345,2024-09-20 14:40:59.624145408+02:00
1726836059643.6768,2.6630434782608696,2.75,11.271739130434783,2.0,1.4336996336996337,697.4961676034748,-6.916030534351145,1.984732824427481,1.6793893129770991,-0.2773613193403298,-0.017991004497751123,0.14692653673163417,101.1868285808024,31.806110422406345,2024-09-20 14:40:59.643676672+02:00
1726836059663.208,2.75,2.684782608695652,11.315217391304348,2.0,1.4351648351648352,696.7840735068913,-7.893129770992366,1.3587786259541985,1.9694656488549618,-0.2893553223388306,-0.022488755622188904,0.14842578710644677,101.18957862435369,31.806110422406345,2024-09-20 14:40:59.663207936+02:00
1726836059682.7393,2.7282608695652173,2.75,11.282608695652174,2.0,1.4351648351648352,696.7840735068913,-7.297709923664121,0.6412213740458015,1.5725190839694656,-0.280359820089955,-0.013493253373313342,0.14392803598200898,101.1840785398531,31.806110422406345,2024-09-20 14:40:59.682739200+02:00
1726836059702.2705,2.760869565217391,2.717391304347826,11.33695652173913,2.0,1.4366300366300364,696.0734319224887,-7.709923664122137,0.8396946564885496,1.4961832061068703,-0.2818590704647676,-0.020989505247376312,0.1394302848575712,101.1868285808024,31.806110422406345,2024-09-20 14:40:59.702270464+02:00
1726836059721.8018,2.6956521739130435,2.7391304347826084,11.380434782608695,2.0,1.4395604395604398,694.6564885496182,-7.66412213740458,0.5801526717557252,1.3282442748091603,-0.2833583208395802,-0.019490254872563718,0.13343328335832083,101.1868285808024,31.806110422406345,2024-09-20 14:40:59.721801728+02:00
1726836059741.333,2.7391304347826084,2.717391304347826,11.26086956521739,2.0,1.4424908424908425,693.2453021838496,-7.877862595419847,0.1984732824427481,1.5877862595419847,-0.28785607196401797,-0.01649175412293853,0.12893553223388304,101.19232867050698,31.806110422406345,2024-09-20 14:40:59.741332992+02:00
1726836059760.8645,2.760869565217391,2.717391304347826,11.315217391304348,2.0,1.443956043956044,692.5418569254185,-7.6183206106870225,0.9618320610687022,1.8015267175572518,-0.2833583208395802,0.0029985007496251873,0.1424287856071964,101.1868285808024,31.806110422406345,2024-09-20 14:40:59.760864512+02:00
1726836059780.3955,2.7282608695652173,2.7391304347826084,11.282608695652174,2.0,1.443956043956044,692.5418569254185,-7.6183206106870225,0.7175572519083969,1.5114503816793892,-0.2848575712143928,-0.008995502248875561,0.13793103448275862,101.1840785398531,31.806110422406345,2024-09-20 14:40:59.780395520+02:00
1726836059799.9268,2.75,2.6956521739130435,11.304347826086957,2.0,1.4454212454212458,691.8398378104408,-7.98473282442748,0.549618320610687,1.4961832061068703,-0.2848575712143928,-0.01649175412293853,0.1394302848575712,101.1868285808024,31.806110422406345,2024-09-20 14:40:59.799926784+02:00
1726836059819.458,2.7391304347826084,2.7065217391304346,11.315217391304348,2.0,1.4454212454212458,691.8398378104408,-7.099236641221374,0.33587786259541985,1.6335877862595418,-0.28785607196401797,-0.014992503748125937,0.14992503748125938,101.19232867050698,31.806110422406345,2024-09-20 14:40:59.819458048+02:00
1726836059838.9893,2.782608695652174,2.7282608695652173,11.25,2.0,1.4468864468864473,691.139240506329,-7.343511450381679,0.12213740458015267,1.4809160305343512,-0.2788605697151424,-0.020989505247376312,0.136431784107946,101.18957862435369,31.806110422406345,2024-09-20 14:40:59.838989312+02:00
1726836059858.5205,2.7717391304347827,2.7391304347826084,11.315217391304348,2.0,1.4468864468864473,691.139240506329,-7.541984732824427,0.916030534351145,1.9236641221374045,-0.28785607196401797,-0.029985007496251874,0.1454272863568216,101.18957862435369,31.806110422406345,2024-09-20 14:40:59.858520576+02:00
1726836059878.0518,2.75,2.717391304347826,11.326086956521738,2.0,1.4483516483516488,690.4400606980272,-7.419847328244274,0.6717557251908397,1.3587786259541985,-0.2908545727136432,-0.022488755622188904,0.14992503748125938,101.19232867050698,31.806110422406345,2024-09-20 14:40:59.878051840+02:00
1726836059897.583,2.7282608695652173,2.717391304347826,11.271739130434783,2.0,1.4483516483516488,690.4400606980272,-7.603053435114504,0.6564885496183206,1.5725190839694656,-0.2908545727136432,-0.022488755622188904,0.14392803598200898,101.19232867050698,31.806110422406345,2024-09-20 14:40:59.897583104+02:00
1726836059917.1145,2.7391304347826084,2.7065217391304346,11.304347826086957,2.0,1.4483516483516488,690.4400606980272,-7.66412213740458,1.0687022900763359,1.4961832061068703,-0.27436281859070466,-0.005997001499250375,0.13793103448275862,101.1868285808024,31.806110422406345,2024-09-20 14:40:59.917114624+02:00
1726836059936.6455,2.7717391304347827,2.7282608695652173,11.326086956521738,2.0,1.4483516483516488,690.4400606980272,-7.49618320610687,1.114503816793893,1.7251908396946565,-0.2893553223388306,-0.008995502248875561,0.1409295352323838,101.1868285808024,31.806110422406345,2024-09-20 14:40:59.936645632+02:00
1726836059956.1768,2.684782608695652,2.717391304347826,11.293478260869565,2.0,1.44981684981685,689.7422940879231,-7.7251908396946565,1.0534351145038168,1.7251908396946565,-0.2893553223388306,-0.0074962518740629685,0.1409295352323838,101.1868285808024,31.806110422406345,2024-09-20 14:40:59.956176640+02:00
1726836059975.708,2.7717391304347827,2.7065217391304346,11.304347826086957,2.0,1.44981684981685,689.7422940879231,-7.541984732824427,0.6412213740458015,1.8931297709923662,-0.2863568215892054,-0.0074962518740629685,0.13793103448275862,101.19232867050698,31.806110422406345,2024-09-20 14:40:59.975707904+02:00
1726836059995.2393,2.7391304347826084,2.7065217391304346,11.293478260869565,2.0,1.44981684981685,689.7422940879231,-7.465648854961832,0.916030534351145,1.648854961832061,-0.2833583208395802,0.0,0.1409295352323838,101.1840785398531,31.806110422406345,2024-09-20 14:40:59.995239168+02:00
1726836060014.7705,2.7391304347826084,2.717391304347826,11.304347826086957,2.0,1.44981684981685,689.7422940879231,-7.49618320610687,0.8244274809160305,1.4198473282442747,-0.28785607196401797,-0.022488755622188904,0.1424287856071964,101.19232867050698,31.806110422406345,2024-09-20 14:41:00.014770432+02:00
1726836060034.3018,2.7391304347826084,2.7065217391304346,11.304347826086957,2.0,1.44981684981685,689.7422940879231,-7.114503816793893,0.7786259541984732,1.6030534351145038,-0.2833583208395802,-0.020989505247376312,0.1394302848575712,101.19147610165157,31.801054498931627,2024-09-20 14:41:00.034301696+02:00
1726836060053.833,2.717391304347826,2.7282608695652173,11.282608695652174,2.0,1.4512820512820515,689.0459363957597,-7.007633587786259,1.0534351145038168,1.5725190839694656,-0.2893553223388306,-0.019490254872563718,0.14392803598200898,101.19147610165157,31.801054498931627,2024-09-20 14:41:00.053832960+02:00
1726836060073.3645,2.760869565217391,2.717391304347826,11.304347826086957,2.0,1.4512820512820515,689.0459363957597,-7.541984732824427,0.7786259541984732,1.7404580152671756,-0.2848575712143928,-0.013493253373313342,0.14842578710644677,101.19422612807907,31.801054498931627,2024-09-20 14:41:00.073364480+02:00
1726836060092.8955,2.7391304347826084,2.7065217391304346,11.347826086956522,2.0,1.452747252747253,688.3509833585475,-7.587786259541985,0.9618320610687022,1.9541984732824427,-0.2788605697151424,-0.010494752623688156,0.14992503748125938,101.18872607782603,31.801054498931627,2024-09-20 14:41:00.092895488+02:00
1726836060112.4268,2.7391304347826084,2.7391304347826084,11.304347826086957,2.0,1.4512820512820515,689.0459363957597,-6.793893129770992,0.7633587786259541,1.6946564885496183,-0.2863568215892054,-0.01649175412293853,0.13193403298350825,101.19147610165157,31.801054498931627,2024-09-20 14:41:00.112426752+02:00
1726836060131.958,2.717391304347826,2.7065217391304346,11.239130434782608,2.0,1.452747252747253,688.3509833585475,-7.8473282442748085,1.099236641221374,1.9694656488549618,-0.29385307346326833,-0.0014992503748125937,0.1424287856071964,101.19422612807907,31.801054498931627,2024-09-20 14:41:00.131958016+02:00
1726836060151.4893,2.6739130434782608,2.7282608695652173,11.347826086956522,2.0,1.452747252747253,688.3509833585475,-7.511450381679389,1.1603053435114503,1.7251908396946565,-0.280359820089955,-0.013493253373313342,0.13343328335832083,101.1859760566025,31.801054498931627,2024-09-20 14:41:00.151489280+02:00
1726836060171.0205,2.7391304347826084,2.75,11.206521739130434,2.0,1.452747252747253,688.3509833585475,-7.633587786259541,0.6259541984732824,1.648854961832061,-0.2893553223388306,-0.01649175412293853,0.14692653673163417,101.19147610165157,31.801054498931627,2024-09-20 14:41:00.171020544+02:00
1726836060190.5518,2.75,2.6956521739130435,11.380434782608695,2.0,1.452747252747253,688.3509833585475,-7.572519083969465,0.8549618320610687,1.9389312977099236,-0.2863568215892054,-0.014992503748125937,0.1409295352323838,101.19147610165157,31.801054498931627,2024-09-20 14:41:00.190551808+02:00
1726836060210.083,2.8152173913043477,2.7717391304347827,11.228260869565217,2.0,1.452747252747253,688.3509833585475,-7.343511450381679,0.21374045801526717,1.3435114503816794,-0.280359820089955,0.004497751124437781,0.1424287856071964,101.19147610165157,31.801054498931627,2024-09-20 14:41:00.210083072+02:00
1726836060229.6145,2.75,2.684782608695652,11.33695652173913,2.0,1.452747252747253,688.3509833585475,-7.526717557251908,1.5572519083969465,1.9236641221374045,-0.2833583208395802,-0.026986506746626684,0.1454272863568216,101.18872607782603,31.801054498931627,2024-09-20 14:41:00.229614592+02:00
1726836060249.1455,2.7391304347826084,2.7391304347826084,11.293478260869565,2.0,1.4542124542124544,687.6574307304785,-7.404580152671755,1.3587786259541985,1.5267175572519083,-0.28785607196401797,-0.025487256371814093,0.1454272863568216,101.19147610165157,31.801054498931627,2024-09-20 14:41:00.249145600+02:00
1726836060268.6768,2.7065217391304346,2.7391304347826084,11.293478260869565,2.0,1.4542124542124544,687.6574307304785,-7.419847328244274,1.4961832061068703,1.3587786259541985,-0.2848575712143928,-0.017991004497751123,0.15142428785607195,101.18872607782603,31.801054498931627,2024-09-20 14:41:00.268676864+02:00
1726836060288.208,2.7282608695652173,2.7065217391304346,11.271739130434783,2.0,1.4542124542124544,687.6574307304785,-7.435114503816793,1.5419847328244274,1.816793893129771,-0.2818590704647676,-0.01199400299850075,0.14842578710644677,101.19147610165157,31.801054498931627,2024-09-20 14:41:00.288208128+02:00
1726836060307.7393,2.7282608695652173,2.7282608695652173,11.347826086956522,2.0,1.4542124542124544,687.6574307304785,-7.679389312977099,0.8549618320610687,1.3587786259541985,-0.2863568215892054,-0.008995502248875561,0.136431784107946,101.18872607782603,31.801054498931627,2024-09-20 14:41:00.307739136+02:00
1726836060327.2705,2.7282608695652173,2.7282608695652173,11.271739130434783,2.0,1.452747252747253,688.3509833585475,-7.7251908396946565,0.7786259541984732,1.5114503816793892,-0.2848575712143928,-0.008995502248875561,0.1409295352323838,101.19422612807907,31.801054498931627,2024-09-20 14:41:00.327270400+02:00
1726836060346.8018,2.760869565217391,2.7065217391304346,11.304347826086957,2.0,1.452747252747253,688.3509833585475,-7.893129770992366,0.7786259541984732,1.66412213740458,-0.27586206896551724,-0.025487256371814093,0.13793103448275862,101.1859760566025,31.801054498931627,2024-09-20 14:41:00.346801664+02:00
1726836060366.333,2.7282608695652173,2.7391304347826084,11.282608695652174,2.0,1.452747252747253,688.3509833585475,-7.465648854961832,0.8396946564885496,1.816793893129771,-0.2818590704647676,0.0029985007496251873,0.14692653673163417,101.19147610165157,31.801054498931627,2024-09-20 14:41:00.366332928+02:00
1726836060385.8645,2.717391304347826,2.717391304347826,11.304347826086957,2.0,1.452747252747253,688.3509833585475,-7.66412213740458,0.6717557251908397,1.6793893129770991,-0.2908545727136432,-0.022488755622188904,0.15142428785607195,101.18872607782603,31.801054498931627,2024-09-20 14:41:00.385864448+02:00
1726836060405.3955,2.7717391304347827,2.7065217391304346,11.304347826086957,2.0,1.452747252747253,688.3509833585475,-8.015267175572518,0.8091603053435115,1.618320610687023,-0.2788605697151424,-0.022488755622188904,0.1394302848575712,101.18872607782603,31.801054498931627,2024-09-20 14:41:00.405395456+02:00
1726836060424.9268,2.75,2.7391304347826084,11.304347826086957,2.0,1.452747252747253,688.3509833585475,-7.145038167938931,0.6717557251908397,1.5267175572519083,-0.28785607196401797,-0.022488755622188904,0.1424287856071964,101.19147610165157,31.801054498931627,2024-09-20 14:41:00.424926720+02:00
1726836060444.458,2.75,2.7065217391304346,11.293478260869565,2.0,1.452747252747253,688.3509833585475,-7.3893129770992365,0.6717557251908397,1.83206106870229,-0.280359820089955,-0.01649175412293853,0.1394302848575712,101.1859760566025,31.801054498931627,2024-09-20 14:41:00.444457984+02:00
1726836060463.9893,2.7282608695652173,2.7282608695652173,11.293478260869565,2.0,1.4512820512820515,689.0459363957597,-7.83206106870229,0.7022900763358778,1.9083969465648853,-0.2863568215892054,-0.008995502248875561,0.1424287856071964,101.19147610165157,31.801054498931627,2024-09-20 14:41:00.463989248+02:00
1726836060483.5205,2.75,2.7282608695652173,11.293478260869565,2.0,1.452747252747253,688.3509833585475,-7.480916030534351,0.6717557251908397,1.618320610687023,-0.2818590704647676,-0.01199400299850075,0.1454272863568216,101.1859760566025,31.801054498931627,2024-09-20 14:41:00.483520512+02:00
1726836060503.0518,2.760869565217391,2.7391304347826084,11.33695652173913,2.0,1.4512820512820515,689.0459363957597,-7.66412213740458,0.2748091603053435,2.229007633587786,-0.29235382308845576,-0.019490254872563718,0.14392803598200898,101.19147610165157,31.801054498931627,2024-09-20 14:41:00.503051776+02:00
1726836060522.583,2.760869565217391,2.717391304347826,11.271739130434783,2.0,1.452747252747253,688.3509833585475,-7.6183206106870225,0.42748091603053434,1.5267175572519083,-0.2863568215892054,-0.025487256371814093,0.1394302848575712,101.19422612807907,31.801054498931627,2024-09-20 14:41:00.522583040+02:00
1726836060542.1145,2.717391304347826,2.7065217391304346,11.293478260869565,2.0,1.4512820512820515,689.0459363957597,-7.755725190839694,0.9465648854961831,1.9694656488549618,-0.2818590704647676,-0.0239880059970015,0.1394302848575712,101.19697615710852,31.801054498931627,2024-09-20 14:41:00.542114560+02:00
1726836060561.6455,2.7282608695652173,2.7065217391304346,11.347826086956522,2.0,1.4512820512820515,689.0459363957597,-7.66412213740458,0.6717557251908397,1.66412213740458,-0.2773613193403298,-0.019490254872563718,0.1424287856071964,101.18047602196127,31.801054498931627,2024-09-20 14:41:00.561645568+02:00
1726836060581.1768,2.75,2.7282608695652173,11.26086956521739,2.0,1.4512820512820515,689.0459363957597,-7.32824427480916,0.6870229007633587,1.7557251908396947,-0.2773613193403298,-0.0074962518740629685,0.14392803598200898,101.18872607782603,31.801054498931627,2024-09-20 14:41:00.581176832+02:00
1726836060600.708,2.760869565217391,2.717391304347826,11.347826086956522,2.0,1.4512820512820515,689.0459363957597,-7.435114503816793,1.2519083969465647,1.5419847328244274,-0.2893553223388306,-0.014992503748125937,0.13793103448275862,101.1859760566025,31.801054498931627,2024-09-20 14:41:00.600708096+02:00
1726836060620.2393,2.717391304347826,2.7065217391304346,11.271739130434783,2.0,1.4512820512820515,689.0459363957597,-7.435114503816793,1.0076335877862594,1.5114503816793892,-0.2848575712143928,-0.008995502248875561,0.14392803598200898,101.1859760566025,31.801054498931627,2024-09-20 14:41:00.620239360+02:00
1726836060639.7705,2.717391304347826,2.6956521739130435,11.293478260869565,2.0,1.4512820512820515,689.0459363957597,-7.6183206106870225,1.1755725190839694,1.618320610687023,-0.29685157421289354,-0.008995502248875561,0.1424287856071964,101.19147610165157,31.801054498931627,2024-09-20 14:41:00.639770624+02:00
1726836060659.3018,2.7282608695652173,2.717391304347826,11.304347826086957,2.0,1.44981684981685,689.7422940879231,-7.450381679389313,1.4045801526717556,1.2061068702290076,-0.28785607196401797,-0.01199400299850075,0.1454272863568216,101.19147610165157,31.801054498931627,2024-09-20 14:41:00.659301632+02:00
1726836060678.833,2.760869565217391,2.7282608695652173,11.33695652173913,2.0,1.44981684981685,689.7422940879231,-7.2824427480916025,1.3587786259541985,1.5877862595419847,-0.2788605697151424,-0.022488755622188904,0.1394302848575712,101.18872607782603,31.801054498931627,2024-09-20 14:41:00.678832896+02:00
1726836060698.3645,2.8369565217391304,2.7282608695652173,11.369565217391305,2.0,1.44981684981685,689.7422940879231,-7.297709923664121,0.6259541984732824,1.2366412213740459,-0.28785607196401797,-0.017991004497751123,0.14692653673163417,101.1859760566025,31.801054498931627,2024-09-20 14:41:00.698364416+02:00
1726836060717.8955,2.6956521739130435,2.6739130434782608,11.347826086956522,2.0,1.44981684981685,689.7422940879231,-7.526717557251908,1.2671755725190839,1.0534351145038168,-0.2818590704647676,-0.010494752623688156,0.14992503748125938,101.18872607782603,31.801054498931627,2024-09-20 14:41:00.717895424+02:00
1726836060737.4268,2.75,2.7717391304347827,11.239130434782608,2.0,1.44981684981685,689.7422940879231,-7.251908396946565,1.0381679389312977,2.091603053435114,-0.2818590704647676,-0.017991004497751123,0.1409295352323838,101.19147610165157,31.801054498931627,2024-09-20 14:41:00.737426688+02:00
1726836060756.958,2.760869565217391,2.641304347826087,11.391304347826086,2.0,1.4483516483516488,690.4400606980272,-7.572519083969465,0.6564885496183206,1.4961832061068703,-0.2848575712143928,-0.010494752623688156,0.14692653673163417,101.18322603798089,31.801054498931627,2024-09-20 14:41:00.756957952+02:00
1726836060776.4893,2.7282608695652173,2.7717391304347827,11.293478260869565,2.0,1.4483516483516488,690.4400606980272,-7.175572519083969,0.9312977099236641,1.3740458015267174,-0.2848575712143928,-0.008995502248875561,0.1454272863568216,101.19147610165157,31.801054498931627,2024-09-20 14:41:00.776489216+02:00
1726836060796.0205,2.7391304347826084,2.7065217391304346,11.315217391304348,2.0,1.4483516483516488,690.4400606980272,-7.465648854961832,0.9618320610687022,1.6946564885496183,-0.28785607196401797,-0.0074962518740629685,0.14392803598200898,101.19147610165157,31.801054498931627,2024-09-20 14:41:00.796020480+02:00
1726836060815.5518,2.717391304347826,2.760869565217391,11.304347826086957,2.0,1.4468864468864473,691.139240506329,-7.32824427480916,0.5190839694656488,1.7251908396946565,-0.2788605697151424,-0.01199400299850075,0.1394302848575712,101.18872607782603,31.801054498931627,2024-09-20 14:41:00.815551744+02:00
1726836060835.083,2.7065217391304346,2.7391304347826084,11.293478260869565,2.0,1.4483516483516488,690.4400606980272,-7.66412213740458,0.2595419847328244,1.7099236641221374,-0.2848575712143928,-0.01199400299850075,0.1394302848575712,101.18872607782603,31.801054498931627,2024-09-20 14:41:00.835083008+02:00
1726836060854.6145,2.8043478260869565,2.6956521739130435,11.326086956521738,2.0,1.4468864468864473,691.139240506329,-7.587786259541985,0.916030534351145,1.5725190839694656,-0.28785607196401797,-0.022488755622188904,0.14692653673163417,101.19147610165157,31.801054498931627,2024-09-20 14:41:00.854614528+02:00
1726836060874.1455,2.7065217391304346,2.7282608695652173,11.293478260869565,2.0,1.4468864468864473,691.139240506329,-7.465648854961832,0.2900763358778626,1.5419847328244274,-0.28785607196401797,0.0014992503748125937,0.14692653673163417,101.19422612807907,31.801054498931627,2024-09-20 14:41:00.874145536+02:00
1726836060893.6768,2.760869565217391,2.7391304347826084,11.33695652173913,2.0,1.4483516483516488,690.4400606980272,-7.541984732824427,0.22900763358778625,1.4961832061068703,-0.2818590704647676,-0.013493253373313342,0.1409295352323838,101.19147610165157,31.801054498931627,2024-09-20 14:41:00.893676800+02:00
1726836060913.208,2.75,2.7065217391304346,11.293478260869565,2.0,1.4468864468864473,691.139240506329,-7.297709923664121,0.7633587786259541,2.0,-0.2908545727136432,-0.01199400299850075,0.14692653673163417,101.19147610165157,31.801054498931627,2024-09-20 14:41:00.913208064+02:00
1726836060932.7393,2.7282608695652173,2.75,11.271739130434783,2.0,1.4468864468864473,691.139240506329,-7.175572519083969,0.6106870229007634,1.8015267175572518,-0.2833583208395802,-0.008995502248875561,0.14392803598200898,101.19147610165157,31.801054498931627,2024-09-20 14:41:00.932739328+02:00
1726836060952.2705,2.8043478260869565,2.7282608695652173,11.33695652173913,2.0,1.4468864468864473,691.139240506329,-7.633587786259541,1.2366412213740459,1.6946564885496183,-0.2818590704647676,-0.008995502248875561,0.14692653673163417,101.18872607782603,31.801054498931627,2024-09-20 14:41:00.952270592+02:00
1726836060971.8018,2.717391304347826,2.717391304347826,11.304347826086957,2.0,1.4454212454212458,691.8398378104408,-7.557251908396946,1.2519083969465647,1.4809160305343512,-0.28785607196401797,-0.01199400299850075,0.14692653673163417,101.1859760566025,31.801054498931627,2024-09-20 14:41:00.971801856+02:00
1726836060991.333,2.7391304347826084,2.717391304347826,11.315217391304348,2.0,1.4454212454212458,691.8398378104408,-7.32824427480916,1.0381679389312977,1.297709923664122,-0.280359820089955,-0.008995502248875561,0.1394302848575712,101.19147610165157,31.801054498931627,2024-09-20 14:41:00.991333120+02:00
1726836061010.8645,2.7717391304347827,2.7282608695652173,11.293478260869565,2.0,1.4454212454212458,691.8398378104408,-6.916030534351145,1.3893129770992365,1.4198473282442747,-0.280359820089955,-0.0239880059970015,0.14992503748125938,101.19422612807907,31.801054498931627,2024-09-20 14:41:01.010864384+02:00
1726836061030.3955,2.793478260869565,2.7282608695652173,11.347826086956522,2.0,1.443956043956044,692.5418569254185,-7.083969465648854,1.0229007633587786,1.297709923664122,-0.2818590704647676,-0.019490254872563718,0.15142428785607195,101.19593131324226,31.811166346172104,2024-09-20 14:41:01.030395392+02:00
1726836061049.9268,2.6956521739130435,2.717391304347826,11.304347826086957,2.0,1.443956043956044,692.5418569254185,-7.404580152671755,1.2519083969465647,1.0229007633587786,-0.2833583208395802,0.0029985007496251873,0.1424287856071964,101.19318124215908,31.811166346172104,2024-09-20 14:41:01.049926656+02:00
1726836061069.458,2.6739130434782608,2.75,11.326086956521738,2.0,1.443956043956044,692.5418569254185,-7.770992366412213,1.4045801526717556,1.7557251908396947,-0.2833583208395802,-0.020989505247376312,0.14992503748125938,101.19318124215908,31.811166346172104,2024-09-20 14:41:01.069457920+02:00
1726836061088.9893,2.6630434782608696,2.717391304347826,11.293478260869565,2.0,1.443956043956044,692.5418569254185,-7.511450381679389,0.3511450381679389,1.8015267175572518,-0.2848575712143928,-0.019490254872563718,0.1394302848575712,101.18768110779891,31.811166346172104,2024-09-20 14:41:01.088989184+02:00
1726836061108.5205,2.7717391304347827,2.75,11.304347826086957,2.0,1.443956043956044,692.5418569254185,-7.221374045801526,0.3053435114503817,1.7709923664122136,-0.29235382308845576,-0.010494752623688156,0.1454272863568216,101.19318124215908,31.811166346172104,2024-09-20 14:41:01.108520448+02:00
1726836061128.0518,2.8043478260869565,2.717391304347826,11.315217391304348,2.0,1.4424908424908425,693.2453021838496,-7.404580152671755,0.549618320610687,1.5114503816793892,-0.2848575712143928,-0.0029985007496251873,0.1409295352323838,101.18768110779891,31.811166346172104,2024-09-20 14:41:01.128051712+02:00
1726836061147.583,2.7282608695652173,2.717391304347826,11.315217391304348,2.0,1.4424908424908425,693.2453021838496,-7.404580152671755,0.7480916030534351,1.1603053435114503,-0.2788605697151424,0.0,0.14692653673163417,101.19318124215908,31.811166346172104,2024-09-20 14:41:01.147582976+02:00
1726836061167.1145,2.7065217391304346,2.75,11.293478260869565,2.0,1.4410256410256412,693.950177935943,-7.175572519083969,0.6870229007633587,1.465648854961832,-0.2863568215892054,-0.017991004497751123,0.14992503748125938,101.19318124215908,31.811166346172104,2024-09-20 14:41:01.167114496+02:00
1726836061186.6455,2.75,2.717391304347826,11.282608695652174,2.0,1.4410256410256412,693.950177935943,-7.221374045801526,0.9465648854961831,1.2366412213740459,-0.2863568215892054,-0.017991004497751123,0.1394302848575712,101.19043117367796,31.811166346172104,2024-09-20 14:41:01.186645504+02:00
1726836061206.1768,2.7282608695652173,2.7391304347826084,11.315217391304348,2.0,1.4410256410256412,693.950177935943,-6.946564885496183,0.7786259541984732,1.2671755725190839,-0.2863568215892054,-0.022488755622188904,0.1424287856071964,101.19043117367796,31.811166346172104,2024-09-20 14:41:01.206176768+02:00
1726836061225.708,2.7282608695652173,2.7282608695652173,11.315217391304348,2.0,1.4410256410256412,693.950177935943,-7.32824427480916,0.6564885496183206,1.4198473282442747,-0.2863568215892054,-0.0239880059970015,0.1409295352323838,101.19593131324226,31.811166346172104,2024-09-20 14:41:01.225708032+02:00
1726836061245.2393,2.782608695652174,2.75,11.282608695652174,2.0,1.4395604395604398,694.6564885496182,-7.236641221374046,0.4580152671755725,1.4045801526717556,-0.2863568215892054,-0.020989505247376312,0.14842578710644677,101.19043117367796,31.811166346172104,2024-09-20 14:41:01.245239296+02:00
1726836061264.7705,2.717391304347826,2.684782608695652,11.347826086956522,2.0,1.4395604395604398,694.6564885496182,-7.603053435114504,0.8549618320610687,2.045801526717557,-0.29235382308845576,-0.020989505247376312,0.14692653673163417,101.18493104452189,31.811166346172104,2024-09-20 14:41:01.264770560+02:00
1726836061284.3018,2.760869565217391,2.75,11.271739130434783,2.0,1.4395604395604398,694.6564885496182,-6.946564885496183,0.6259541984732824,1.5877862595419847,-0.29535232383808097,-0.022488755622188904,0.14842578710644677,101.19318124215908,31.811166346172104,2024-09-20 14:41:01.284301824+02:00
1726836061303.833,2.7391304347826084,2.6956521739130435,11.347826086956522,2.0,1.4380952380952383,695.3642384105959,-7.816793893129771,1.2061068702290076,2.0,-0.2863568215892054,-0.020989505247376312,0.14842578710644677,101.19318124215908,31.811166346172104,2024-09-20 14:41:01.303833088+02:00
1726836061323.3645,2.760869565217391,2.7391304347826084,11.282608695652174,2.0,1.4380952380952383,695.3642384105959,-7.557251908396946,0.6564885496183206,1.4198473282442747,-0.2833583208395802,-0.014992503748125937,0.14392803598200898,101.19318124215908,31.811166346172104,2024-09-20 14:41:01.323364608+02:00
1726836061342.8955,2.7391304347826084,2.717391304347826,11.282608695652174,2.0,1.4380952380952383,695.3642384105959,-7.6183206106870225,0.8702290076335878,1.8015267175572518,-0.2848575712143928,-0.014992503748125937,0.14992503748125938,101.19043117367796,31.811166346172104,2024-09-20 14:41:01.342895616+02:00
1726836061362.4268,2.760869565217391,2.7282608695652173,11.315217391304348,2.0,1.4366300366300364,696.0734319224887,-7.312977099236641,0.9007633587786259,2.015267175572519,-0.28785607196401797,-0.022488755622188904,0.1454272863568216,101.19043117367796,31.811166346172104,2024-09-20 14:41:01.362426880+02:00
1726836061381.958,2.7282608695652173,2.7282608695652173,11.26086956521739,2.0,1.4366300366300364,696.0734319224887,-7.7251908396946565,1.1603053435114503,1.465648854961832,-0.28785607196401797,-0.020989505247376312,0.14842578710644677,101.19043117367796,31.811166346172104,2024-09-20 14:41:01.381957888+02:00
1726836061401.4893,2.75,2.7282608695652173,11.326086956521738,2.0,1.4366300366300364,696.0734319224887,-7.465648854961832,0.8549618320610687,1.66412213740458,-0.280359820089955,-0.010494752623688156,0.1409295352323838,101.19318124215908,31.811166346172104,2024-09-20 14:41:01.401489152+02:00
1726836061421.0205,2.7282608695652173,2.75,11.26086956521739,2.0,1.4366300366300364,696.0734319224887,-7.404580152671755,0.7480916030534351,1.5267175572519083,-0.2863568215892054,-0.0074962518740629685,0.14692653673163417,101.19043117367796,31.811166346172104,2024-09-20 14:41:01.421020416+02:00
1726836061440.5518,2.760869565217391,2.7065217391304346,11.326086956521738,2.0,1.4366300366300364,696.0734319224887,-7.557251908396946,1.114503816793893,1.4045801526717556,-0.2818590704647676,-0.005997001499250375,0.136431784107946,101.18768110779891,31.811166346172104,2024-09-20 14:41:01.440551680+02:00
1726836061460.083,2.7391304347826084,2.7391304347826084,11.326086956521738,2.0,1.4366300366300364,696.0734319224887,-7.129770992366412,0.9618320610687022,1.282442748091603,-0.2893553223388306,-0.01199400299850075,0.1394302848575712,101.19043117367796,31.811166346172104,2024-09-20 14:41:01.460082944+02:00
1726836061479.6145,2.7717391304347827,2.75,11.25,2.0,1.4351648351648352,696.7840735068913,-7.2824427480916025,0.5954198473282443,1.4198473282442747,-0.28785607196401797,-0.0074962518740629685,0.14992503748125938,101.19318124215908,31.811166346172104,2024-09-20 14:41:01.479614464+02:00
1726836061499.1455,2.7717391304347827,2.7065217391304346,11.293478260869565,2.0,1.4351648351648352,696.7840735068913,-7.694656488549618,0.8244274809160305,1.9389312977099236,-0.28785607196401797,-0.019490254872563718,0.14692653673163417,101.18768110779891,31.811166346172104,2024-09-20 14:41:01.499145472+02:00
1726836061518.6768,2.717391304347826,2.7391304347826084,11.293478260869565,2.0,1.4336996336996337,697.4961676034748,-7.740458015267175,1.2519083969465647,1.66412213740458,-0.2863568215892054,-0.004497751124437781,0.15142428785607195,101.19043117367796,31.811166346172104,2024-09-20 14:41:01.518676736+02:00
1726836061538.208,2.7717391304347827,2.717391304347826,11.326086956521738,2.0,1.4336996336996337,697.4961676034748,-7.541984732824427,0.5801526717557252,1.5114503816793892,-0.2833583208395802,-0.019490254872563718,0.1394302848575712,101.19318124215908,31.811166346172104,2024-09-20 14:41:01.538208+02:00
1726836061557.7393,2.7282608695652173,2.7391304347826084,11.304347826086957,2.0,1.4336996336996337,697.4961676034748,-7.358778625954198,1.1450381679389312,1.5419847328244274,-0.2833583208395802,-0.01649175412293853,0.14842578710644677,101.18768110779891,31.811166346172104,2024-09-20 14:41:01.557739264+02:00
1726836061577.2705,2.7717391304347827,2.7391304347826084,11.271739130434783,2.0,1.4336996336996337,697.4961676034748,-7.435114503816793,0.4427480916030534,1.83206106870229,-0.2848575712143928,-0.014992503748125937,0.1424287856071964,101.19043117367796,31.811166346172104,2024-09-20 14:41:01.577270528+02:00
1726836061596.8018,2.7282608695652173,2.7065217391304346,11.315217391304348,2.0,1.432234432234432,698.2097186700769,-7.541984732824427,1.0076335877862594,1.816793893129771,-0.2818590704647676,-0.008995502248875561,0.1424287856071964,101.19318124215908,31.811166346172104,2024-09-20 14:41:01.596801792+02:00
1726836061616.333,2.760869565217391,2.7282608695652173,11.271739130434783,2.0,1.432234432234432,698.2097186700769,-7.32824427480916,0.6870229007633587,1.6335877862595418,-0.2863568215892054,0.0,0.15142428785607195,101.19868138692745,31.811166346172104,2024-09-20 14:41:01.616333056+02:00
1726836061635.8645,2.7391304347826084,2.7065217391304346,11.282608695652174,2.0,1.432234432234432,698.2097186700769,-7.893129770992366,0.9007633587786259,1.648854961832061,-0.2863568215892054,0.0,0.1424287856071964,101.19043117367796,31.811166346172104,2024-09-20 14:41:01.635864576+02:00
1726836061655.3955,2.7065217391304346,2.7391304347826084,11.293478260869565,2.0,1.432234432234432,698.2097186700769,-7.2824427480916025,0.7175572519083969,1.66412213740458,-0.2848575712143928,-0.013493253373313342,0.14992503748125938,101.19318124215908,31.811166346172104,2024-09-20 14:41:01.655395584+02:00
1726836061674.9268,2.7717391304347827,2.717391304347826,11.293478260869565,2.0,1.432234432234432,698.2097186700769,-7.480916030534351,0.916030534351145,1.8625954198473282,-0.27586206896551724,-0.019490254872563718,0.14692653673163417,101.18768110779891,31.811166346172104,2024-09-20 14:41:01.674926848+02:00
1726836061694.458,2.760869565217391,2.7282608695652173,11.315217391304348,2.0,1.432234432234432,698.2097186700769,-7.251908396946565,0.8854961832061068,1.618320610687023,-0.2788605697151424,0.0,0.1454272863568216,101.19318124215908,31.811166346172104,2024-09-20 14:41:01.694458112+02:00
1726836061713.9893,2.7717391304347827,2.684782608695652,11.239130434782608,2.0,1.432234432234432,698.2097186700769,-7.236641221374046,0.9923664122137404,1.6335877862595418,-0.280359820089955,-0.022488755622188904,0.14392803598200898,101.19043117367796,31.811166346172104,2024-09-20 14:41:01.713989376+02:00
1726836061733.5205,2.75,2.7065217391304346,11.358695652173912,2.0,1.4307692307692308,698.9247311827958,-7.816793893129771,0.9770992366412213,1.83206106870229,-0.2848575712143928,-0.019490254872563718,0.15142428785607195,101.19043117367796,31.811166346172104,2024-09-20 14:41:01.733520384+02:00
1726836061753.0518,2.6956521739130435,2.7391304347826084,11.315217391304348,2.0,1.4307692307692308,698.9247311827958,-7.572519083969465,1.5877862595419847,1.5572519083969465,-0.2818590704647676,-0.0014992503748125937,0.1394302848575712,101.19868138692745,31.811166346172104,2024-09-20 14:41:01.753051648+02:00
1726836061772.583,2.7717391304347827,2.684782608695652,11.26086956521739,2.0,1.4307692307692308,698.9247311827958,-7.374045801526718,0.8854961832061068,1.5267175572519083,-0.2833583208395802,-0.0074962518740629685,0.1454272863568216,101.19043117367796,31.811166346172104,2024-09-20 14:41:01.772582912+02:00
1726836061792.1145,2.760869565217391,2.7282608695652173,11.326086956521738,2.0,1.4307692307692308,698.9247311827958,-7.709923664122137,1.114503816793893,1.9083969465648853,-0.2833583208395802,-0.0074962518740629685,0.1424287856071964,101.19043117367796,31.811166346172104,2024-09-20 14:41:01.792114432+02:00
1726836061811.6455,2.7282608695652173,2.717391304347826,11.315217391304348,2.0,1.4307692307692308,698.9247311827958,-7.374045801526718,1.3587786259541985,1.4045801526717556,-0.28785607196401797,-0.017991004497751123,0.1454272863568216,101.18768110779891,31.811166346172104,2024-09-20 14:41:01.811645440+02:00
