Shimmer_8280_Timestamp_Unix_CAL,Shimmer_8280_Accel_LN_X_CAL,Shimmer_8280_Accel_LN_Y_CAL,Shimmer_8280_Accel_LN_Z_CAL,Shimmer_8280_GSR_Range_CAL,Shimmer_8280_GSR_Skin_Conductance_CAL,Shimmer_8280_GSR_Skin_Resistance_CAL,Shimmer_8280_Gyro_X_CAL,Shimmer_8280_Gyro_Y_CAL,Shimmer_8280_Gyro_Z_CAL,Shimmer_8280_Mag_X_CAL,Shimmer_8280_Mag_Y_CAL,Shimmer_8280_Mag_Z_CAL,Shimmer_8280_Pressure_BMP280_CAL,Shimmer_8280_Temperature_BMP280_CAL,adjusted_time
1726836553051.6355,5.913043478260869,5.076086956521739,9.880434782608695,1.0,9.845439113731798,101.5698729582577,-7.7251908396946565,0.48854961832061067,1.648854961832061,-0.35532233883058467,-0.10194902548725637,0.28785607196401797,99.55998667840248,22.25598996282206,2024-09-20 14:49:13.051635456+02:00
1726836553071.167,5.934782608695652,5.08695652173913,9.847826086956522,1.0,9.845439113731798,101.5698729582577,-7.419847328244274,0.22900763358778625,1.7251908396946565,-0.34632683658170915,-0.10044977511244378,0.280359820089955,99.55727875486667,22.25598996282206,2024-09-20 14:49:13.071166976+02:00
1726836553090.6982,5.923913043478261,5.108695652173913,9.869565217391305,0.0,2.861152114883459,349.5095541401273,-7.435114503816793,0.48854961832061067,1.4809160305343512,-0.3538230884557721,-0.10194902548725637,0.2908545727136432,99.55998667840248,22.25598996282206,2024-09-20 14:49:13.090698240+02:00
1726836553110.2295,5.913043478260869,5.076086956521739,9.847826086956522,0.0,2.861152114883459,349.5095541401273,-7.694656488549618,0.7633587786259541,1.816793893129771,-0.35082458770614694,-0.10494752623688156,0.29535232383808097,99.5545708338566,22.25598996282206,2024-09-20 14:49:13.110229504+02:00
1726836553129.7607,5.923913043478261,5.08695652173913,9.880434782608695,0.0,2.861152114883459,349.5095541401273,-7.786259541984733,0.3969465648854962,1.6030534351145038,-0.34632683658170915,-0.11094452773613193,0.2908545727136432,99.55727875486667,22.25598996282206,2024-09-20 14:49:13.129760768+02:00
1726836553149.292,5.923913043478261,5.08695652173913,9.869565217391305,0.0,2.861152114883459,349.5095541401273,-7.923664122137405,0.5343511450381679,1.7404580152671756,-0.3538230884557721,-0.10794602698650674,0.2908545727136432,99.55998667840248,22.25598996282206,2024-09-20 14:49:13.149292032+02:00
1726836553168.8232,5.934782608695652,5.065217391304348,9.869565217391305,0.0,2.861152114883459,349.5095541401273,-7.679389312977099,0.564885496183206,1.5267175572519083,-0.35082458770614694,-0.11244377811094453,0.2863568215892054,99.55998667840248,22.25598996282206,2024-09-20 14:49:13.168823296+02:00
1726836553188.3545,5.923913043478261,5.0978260869565215,9.880434782608695,1.0,2.8104299881303363,355.8174386920981,-7.465648854961832,0.6106870229007634,1.6946564885496183,-0.34782608695652173,-0.11244377811094453,0.2833583208395802,99.54915499941373,22.25598996282206,2024-09-20 14:49:13.188354560+02:00
1726836553207.8855,5.934782608695652,5.08695652173913,9.880434782608695,1.0,2.8104299881303363,355.8174386920981,-7.557251908396946,0.47328244274809156,1.3893129770992365,-0.3448275862068965,-0.10494752623688156,0.2863568215892054,99.5545708338566,22.25598996282206,2024-09-20 14:49:13.207885568+02:00
1726836553227.417,5.913043478260869,5.08695652173913,9.880434782608695,1.0,2.8104299881303363,355.8174386920981,-7.374045801526718,0.7480916030534351,1.648854961832061,-0.35532233883058467,-0.10944527736131934,0.29235382308845576,99.5545708338566,22.25598996282206,2024-09-20 14:49:13.227417088+02:00
1726836553246.9482,5.923913043478261,5.08695652173913,9.869565217391305,1.0,2.8104299881303363,355.8174386920981,-7.2824427480916025,0.9770992366412213,1.6030534351145038,-0.35982008995502246,-0.10494752623688156,0.29685157421289354,99.5545708338566,22.25598996282206,2024-09-20 14:49:13.246948352+02:00
1726836553266.4795,5.923913043478261,5.08695652173913,9.869565217391305,1.0,2.8104299881303363,355.8174386920981,-7.633587786259541,0.7480916030534351,1.648854961832061,-0.3493253373313343,-0.09895052473763118,0.2848575712143928,99.55727875486667,22.25598996282206,2024-09-20 14:49:13.266479616+02:00
1726836553286.0107,5.9021739130434785,5.08695652173913,9.858695652173912,2.0,2.8036630036630035,356.6762477136138,-7.541984732824427,0.6870229007633587,1.9389312977099236,-0.35082458770614694,-0.10644677661169415,0.2908545727136432,99.5545708338566,22.25598996282206,2024-09-20 14:49:13.286010624+02:00
1726836553305.542,5.923913043478261,5.076086956521739,9.83695652173913,2.0,2.8036630036630035,356.6762477136138,-7.190839694656488,0.7480916030534351,1.7099236641221374,-0.3493253373313343,-0.11094452773613193,0.2908545727136432,99.55186291537228,22.25598996282206,2024-09-20 14:49:13.305541888+02:00
1726836553325.0732,5.923913043478261,5.0978260869565215,9.869565217391305,2.0,2.8021978021978025,356.8627450980392,-7.679389312977099,0.6259541984732824,1.6793893129770991,-0.3493253373313343,-0.11094452773613193,0.280359820089955,99.55998667840248,22.25598996282206,2024-09-20 14:49:13.325073152+02:00
1726836553344.6045,5.923913043478261,5.076086956521739,9.858695652173912,2.0,2.8036630036630035,356.6762477136138,-7.419847328244274,0.6717557251908397,1.8625954198473282,-0.3448275862068965,-0.12293853073463268,0.2893553223388306,99.55186291537228,22.25598996282206,2024-09-20 14:49:13.344604416+02:00
1726836553364.1355,5.9021739130434785,5.08695652173913,9.880434782608695,2.0,2.8036630036630035,356.6762477136138,-7.312977099236641,0.8091603053435115,1.9694656488549618,-0.3448275862068965,-0.1169415292353823,0.28785607196401797,99.5545708338566,22.25598996282206,2024-09-20 14:49:13.364135424+02:00
1726836553383.667,5.923913043478261,5.076086956521739,9.847826086956522,2.0,2.8021978021978025,356.8627450980392,-7.435114503816793,0.5801526717557252,1.4961832061068703,-0.3493253373313343,-0.10644677661169415,0.2848575712143928,99.55186291537228,22.25598996282206,2024-09-20 14:49:13.383666944+02:00
1726836553403.1982,5.934782608695652,5.0978260869565215,9.858695652173912,2.0,2.8007326007326006,357.04943761443894,-7.465648854961832,0.7480916030534351,1.465648854961832,-0.3493253373313343,-0.09745127436281859,0.2908545727136432,99.55727875486667,22.25598996282206,2024-09-20 14:49:13.403198208+02:00
1726836553422.7295,5.934782608695652,5.076086956521739,9.891304347826086,2.0,2.8007326007326006,357.04943761443894,-7.374045801526718,0.38167938931297707,1.83206106870229,-0.3493253373313343,-0.09295352323838081,0.2908545727136432,99.54644708598089,22.25598996282206,2024-09-20 14:49:13.422729472+02:00
1726836553442.2607,5.923913043478261,5.076086956521739,9.847826086956522,2.0,2.8007326007326006,357.04943761443894,-7.236641221374046,0.7786259541984732,1.5114503816793892,-0.34782608695652173,-0.09745127436281859,0.280359820089955,99.55186291537228,22.25598996282206,2024-09-20 14:49:13.442260736+02:00
1726836553461.792,5.934782608695652,5.043478260869565,9.891304347826086,2.0,2.8007326007326006,357.04943761443894,-7.572519083969465,1.2366412213740459,1.9694656488549618,-0.35082458770614694,-0.10044977511244378,0.2863568215892054,99.5545708338566,22.25598996282206,2024-09-20 14:49:13.461792+02:00
1726836553481.3232,5.934782608695652,5.0978260869565215,9.858695652173912,2.0,2.8007326007326006,357.04943761443894,-7.343511450381679,0.6717557251908397,1.5114503816793892,-0.34782608695652173,-0.10644677661169415,0.29685157421289354,99.55186291537228,22.25598996282206,2024-09-20 14:49:13.481323264+02:00
1726836553500.8545,5.923913043478261,5.08695652173913,9.858695652173912,2.0,2.799267399267399,357.23632556922274,-7.786259541984733,0.916030534351145,1.9694656488549618,-0.3523238380809595,-0.11244377811094453,0.2833583208395802,99.54915499941373,22.25598996282206,2024-09-20 14:49:13.500854528+02:00
1726836553520.3855,5.913043478260869,5.076086956521739,9.869565217391305,2.0,2.799267399267399,357.23632556922274,-7.3893129770992365,0.9770992366412213,1.5572519083969465,-0.34632683658170915,-0.11244377811094453,0.29235382308845576,99.5545708338566,22.25598996282206,2024-09-20 14:49:13.520385536+02:00
1726836553539.917,5.923913043478261,5.065217391304348,9.891304347826086,2.0,2.799267399267399,357.23632556922274,-7.2824427480916025,1.0381679389312977,1.6946564885496183,-0.3448275862068965,-0.1184407796101949,0.2833583208395802,99.55998667840248,22.25598996282206,2024-09-20 14:49:13.539917056+02:00
1726836553559.4482,5.934782608695652,5.108695652173913,9.847826086956522,2.0,2.7978021978021976,357.4234092694423,-7.435114503816793,1.0687022900763359,1.8931297709923662,-0.34632683658170915,-0.10944527736131934,0.2908545727136432,99.55186291537228,22.25598996282206,2024-09-20 14:49:13.559448320+02:00
1726836553578.9795,5.913043478260869,5.0978260869565215,9.858695652173912,2.0,2.7978021978021976,357.4234092694423,-7.358778625954198,0.8244274809160305,1.618320610687023,-0.34632683658170915,-0.10194902548725637,0.2863568215892054,99.55186291537228,22.25598996282206,2024-09-20 14:49:13.578979584+02:00
1726836553598.5107,5.956521739130435,5.065217391304348,9.891304347826086,2.0,2.7978021978021976,357.4234092694423,-7.374045801526718,0.5343511450381679,1.3282442748091603,-0.34632683658170915,-0.10644677661169415,0.2863568215892054,99.55186291537228,22.25598996282206,2024-09-20 14:49:13.598510848+02:00
1726836553618.042,5.934782608695652,5.08695652173913,9.847826086956522,2.0,2.7978021978021976,357.4234092694423,-7.648854961832061,0.7480916030534351,1.7557251908396947,-0.34632683658170915,-0.10044977511244378,0.2848575712143928,99.55186291537228,22.25598996282206,2024-09-20 14:49:13.618042112+02:00
1726836553637.5732,5.956521739130435,5.065217391304348,9.902173913043478,2.0,2.796336996336996,357.61068902279277,-7.49618320610687,0.732824427480916,1.7404580152671756,-0.3493253373313343,-0.11244377811094453,0.2773613193403298,99.54915499941373,22.25598996282206,2024-09-20 14:49:13.637573120+02:00
1726836553657.1045,5.945652173913043,5.08695652173913,9.847826086956522,2.0,2.796336996336996,357.61068902279277,-7.343511450381679,0.32061068702290074,1.4809160305343512,-0.3448275862068965,-0.10944527736131934,0.2833583208395802,99.55186291537228,22.25598996282206,2024-09-20 14:49:13.657104384+02:00
1726836553676.6355,5.913043478260869,5.054347826086956,9.869565217391305,2.0,2.796336996336996,357.61068902279277,-7.49618320610687,1.0381679389312977,1.5877862595419847,-0.3568215892053973,-0.11244377811094453,0.280359820089955,99.5545708338566,22.25598996282206,2024-09-20 14:49:13.676635392+02:00
1726836553696.167,5.989130434782608,5.054347826086956,9.891304347826086,2.0,2.7948717948717947,357.7981651376147,-7.358778625954198,0.9007633587786259,1.7709923664122136,-0.34632683658170915,-0.10794602698650674,0.2893553223388306,99.54915499941373,22.25598996282206,2024-09-20 14:49:13.696166912+02:00
1726836553715.6982,5.923913043478261,5.119565217391304,9.858695652173912,2.0,2.7948717948717947,357.7981651376147,-7.145038167938931,0.6106870229007634,1.5877862595419847,-0.3583208395802099,-0.10044977511244378,0.2893553223388306,99.55186291537228,22.25598996282206,2024-09-20 14:49:13.715698176+02:00
1726836553735.2295,5.913043478260869,5.043478260869565,9.847826086956522,2.0,2.7934065934065933,357.98583792289537,-8.0,1.4198473282442747,1.5267175572519083,-0.34632683658170915,-0.10794602698650674,0.2863568215892054,99.54915499941373,22.25598996282206,2024-09-20 14:49:13.735229440+02:00
1726836553754.7607,5.978260869565217,5.0978260869565215,9.847826086956522,2.0,2.791941391941392,358.17370768827084,-7.267175572519084,0.7022900763358778,1.7557251908396947,-0.34782608695652173,-0.09895052473763118,0.29685157421289354,99.55727875486667,22.25598996282206,2024-09-20 14:49:13.754760704+02:00
1726836553774.292,5.9021739130434785,5.08695652173913,9.858695652173912,2.0,2.791941391941392,358.17370768827084,-7.541984732824427,0.6106870229007634,1.4198473282442747,-0.34632683658170915,-0.095952023988006,0.2773613193403298,99.55186291537228,22.25598996282206,2024-09-20 14:49:13.774291968+02:00
1726836553793.8232,5.956521739130435,5.076086956521739,9.858695652173912,2.0,2.791941391941392,358.17370768827084,-7.358778625954198,0.8396946564885496,1.4198473282442747,-0.34782608695652173,-0.10944527736131934,0.2908545727136432,99.55727875486667,22.25598996282206,2024-09-20 14:49:13.793823232+02:00
1726836553813.3545,5.945652173913043,5.054347826086956,9.858695652173912,2.0,2.791941391941392,358.17370768827084,-7.603053435114504,0.6412213740458015,2.1374045801526718,-0.3448275862068965,-0.0944527736131934,0.29235382308845576,99.54915499941373,22.25598996282206,2024-09-20 14:49:13.813354496+02:00
1726836553832.8855,5.913043478260869,5.076086956521739,9.858695652173912,2.0,2.79047619047619,358.36177474402734,-7.679389312977099,1.0381679389312977,1.83206106870229,-0.3523238380809595,-0.11244377811094453,0.29385307346326833,99.55186291537228,22.25598996282206,2024-09-20 14:49:13.832885504+02:00
1726836553852.417,5.9021739130434785,5.076086956521739,9.869565217391305,2.0,2.79047619047619,358.36177474402734,-7.404580152671755,0.9770992366412213,1.984732824427481,-0.3448275862068965,-0.10644677661169415,0.2908545727136432,99.54915499941373,22.25598996282206,2024-09-20 14:49:13.852417024+02:00
1726836553871.9482,5.945652173913043,5.076086956521739,9.891304347826086,2.0,2.789010989010989,358.5500394011033,-7.419847328244274,0.6106870229007634,1.7557251908396947,-0.3493253373313343,-0.10944527736131934,0.2908545727136432,99.54373917507381,22.25598996282206,2024-09-20 14:49:13.871948288+02:00
1726836553891.4795,5.934782608695652,5.076086956521739,9.858695652173912,2.0,2.789010989010989,358.5500394011033,-7.66412213740458,1.1450381679389312,1.7251908396946565,-0.3493253373313343,-0.10344827586206896,0.29235382308845576,99.55186291537228,22.25598996282206,2024-09-20 14:49:13.891479552+02:00
1726836553911.0107,5.945652173913043,5.108695652173913,9.880434782608695,2.0,2.7875457875457874,358.73850197109067,-7.541984732824427,1.1450381679389312,1.816793893129771,-0.34182908545727136,-0.10044977511244378,0.2863568215892054,99.54915499941373,22.25598996282206,2024-09-20 14:49:13.911010816+02:00
1726836553930.542,5.956521739130435,5.065217391304348,9.847826086956522,2.0,2.7875457875457874,358.73850197109067,-7.511450381679389,0.732824427480916,1.4045801526717556,-0.3523238380809595,-0.10494752623688156,0.2863568215892054,99.54915499941373,22.25598996282206,2024-09-20 14:49:13.930542080+02:00
1726836553950.0732,5.923913043478261,5.054347826086956,9.858695652173912,2.0,2.7860805860805864,358.9271627662372,-7.66412213740458,0.8091603053435115,1.7862595419847327,-0.3538230884557721,-0.10494752623688156,0.2833583208395802,99.55186291537228,22.25598996282206,2024-09-20 14:49:13.950073344+02:00
1726836553969.6045,5.913043478260869,5.065217391304348,9.880434782608695,2.0,2.7860805860805864,358.9271627662372,-7.541984732824427,1.0534351145038168,1.8778625954198473,-0.3523238380809595,-0.11244377811094453,0.29535232383808097,101.17703379813044,31.927452673111112,2024-09-20 14:49:13.969604608+02:00
1726836553989.1355,5.934782608695652,5.076086956521739,9.869565217391305,2.0,2.7860805860805864,358.9271627662372,-7.557251908396946,0.7175572519083969,1.7557251908396947,-0.34782608695652173,-0.10794602698650674,0.2848575712143928,101.17153270434711,31.927452673111112,2024-09-20 14:49:13.989135616+02:00
1726836554008.667,5.934782608695652,5.0978260869565215,9.83695652173913,2.0,2.7860805860805864,358.9271627662372,-7.343511450381679,0.7022900763358778,1.4351145038167938,-0.34632683658170915,-0.09895052473763118,0.280359820089955,101.17428324993728,31.927452673111112,2024-09-20 14:49:14.008666880+02:00
1726836554028.1982,5.945652173913043,5.108695652173913,9.858695652173912,2.0,2.7846153846153845,359.11602209944755,-7.419847328244274,1.0687022900763359,1.5877862595419847,-0.33883058470764615,-0.11394302848575712,0.2833583208395802,101.17153270434711,31.927452673111112,2024-09-20 14:49:14.028198144+02:00
1726836554047.7295,5.945652173913043,5.065217391304348,9.902173913043478,2.0,2.7846153846153845,359.11602209944755,-7.511450381679389,0.8549618320610687,1.5114503816793892,-0.34182908545727136,-0.10344827586206896,0.29235382308845576,101.17428324993728,31.927452673111112,2024-09-20 14:49:14.047729408+02:00
1726836554067.2607,5.934782608695652,5.076086956521739,9.858695652173912,2.0,2.783150183150183,359.30508028428534,-7.679389312977099,0.7786259541984732,1.8015267175572518,-0.34632683658170915,-0.095952023988006,0.2893553223388306,101.17153270434711,31.927452673111112,2024-09-20 14:49:14.067260672+02:00
1726836554086.792,5.934782608695652,5.08695652173913,9.847826086956522,2.0,2.783150183150183,359.30508028428534,-7.541984732824427,0.7175572519083969,1.5725190839694656,-0.3403298350824588,-0.0914542728635682,0.2848575712143928,101.18253490232567,31.927452673111112,2024-09-20 14:49:14.086791936+02:00
1726836554106.3232,5.945652173913043,5.08695652173913,9.902173913043478,2.0,2.7802197802197797,359.6837944664032,-7.435114503816793,0.6717557251908397,1.450381679389313,-0.34782608695652173,-0.10344827586206896,0.280359820089955,101.17978434892655,31.927452673111112,2024-09-20 14:49:14.106323200+02:00
1726836554125.8545,5.923913043478261,5.08695652173913,9.83695652173913,2.0,2.7816849816849816,359.494337634975,-7.633587786259541,0.8702290076335878,1.7404580152671756,-0.34332833583208394,-0.10044977511244378,0.2908545727136432,101.17428324993728,31.927452673111112,2024-09-20 14:49:14.125854464+02:00
1726836554145.3855,5.945652173913043,5.076086956521739,9.83695652173913,2.0,2.7802197802197797,359.6837944664032,-7.435114503816793,0.9923664122137404,1.7862595419847327,-0.35082458770614694,-0.11094452773613193,0.2863568215892054,101.17153270434711,31.927452673111112,2024-09-20 14:49:14.145385472+02:00
1726836554164.917,5.934782608695652,5.0978260869565215,9.891304347826086,2.0,2.7802197802197797,359.6837944664032,-7.587786259541985,0.732824427480916,1.7557251908396947,-0.35082458770614694,-0.10944527736131934,0.2908545727136432,101.17978434892655,31.927452673111112,2024-09-20 14:49:14.164916992+02:00
1726836554184.4482,5.934782608695652,5.08695652173913,9.880434782608695,2.0,2.7802197802197797,359.6837944664032,-7.633587786259541,0.6412213740458015,1.5877862595419847,-0.3493253373313343,-0.11394302848575712,0.28785607196401797,101.16878216135996,31.927452673111112,2024-09-20 14:49:14.184448256+02:00
1726836554203.9795,5.967391304347826,5.08695652173913,9.858695652173912,2.0,2.7787545787545787,359.87345109412075,-7.465648854961832,0.916030534351145,1.7862595419847327,-0.34782608695652173,-0.10494752623688156,0.28785607196401797,101.17703379813044,31.927452673111112,2024-09-20 14:49:14.203979520+02:00
1726836554223.5107,5.923913043478261,5.065217391304348,9.847826086956522,2.0,2.7787545787545787,359.87345109412075,-7.32824427480916,0.9007633587786259,1.4961832061068703,-0.35532233883058467,-0.09895052473763118,0.2893553223388306,101.17703379813044,31.927452673111112,2024-09-20 14:49:14.223510784+02:00
1726836554243.042,5.934782608695652,5.076086956521739,9.880434782608695,2.0,2.7772893772893767,360.0633078343445,-7.480916030534351,0.9312977099236641,1.3282442748091603,-0.3538230884557721,-0.095952023988006,0.2833583208395802,101.17978434892655,31.927452673111112,2024-09-20 14:49:14.243042048+02:00
1726836554262.5732,5.9021739130434785,5.08695652173913,9.869565217391305,2.0,2.7772893772893767,360.0633078343445,-7.49618320610687,0.6870229007633587,1.83206106870229,-0.3523238380809595,-0.10194902548725637,0.29535232383808097,101.17153270434711,31.927452673111112,2024-09-20 14:49:14.262573312+02:00
1726836554282.1045,5.945652173913043,5.043478260869565,9.847826086956522,2.0,2.7758241758241757,360.25336500395883,-7.83206106870229,0.9465648854961831,1.9541984732824427,-0.3583208395802099,-0.10344827586206896,0.28785607196401797,101.16878216135996,31.927452673111112,2024-09-20 14:49:14.282104576+02:00
1726836554301.6355,5.923913043478261,5.08695652173913,9.847826086956522,2.0,2.7758241758241757,360.25336500395883,-7.3893129770992365,0.9312977099236641,1.648854961832061,-0.35532233883058467,-0.11094452773613193,0.2908545727136432,101.17153270434711,31.927452673111112,2024-09-20 14:49:14.301635584+02:00
1726836554321.167,5.9021739130434785,5.076086956521739,9.847826086956522,2.0,2.7758241758241757,360.25336500395883,-7.236641221374046,1.0229007633587786,1.6335877862595418,-0.35532233883058467,-0.11544227886056971,0.2818590704647676,101.17978434892655,31.927452673111112,2024-09-20 14:49:14.321167104+02:00
1726836554340.6982,5.945652173913043,5.076086956521739,9.869565217391305,2.0,2.7743589743589743,360.44362292051756,-7.312977099236641,0.7175572519083969,1.8625954198473282,-0.35082458770614694,-0.10344827586206896,0.2848575712143928,101.17978434892655,31.927452673111112,2024-09-20 14:49:14.340698368+02:00
1726836554360.2295,5.923913043478261,5.0978260869565215,9.858695652173912,2.0,2.7743589743589743,360.44362292051756,-7.526717557251908,0.7938931297709924,1.7404580152671756,-0.34332833583208394,-0.10494752623688156,0.29385307346326833,101.17703379813044,31.927452673111112,2024-09-20 14:49:14.360229376+02:00
1726836554379.7607,5.945652173913043,5.054347826086956,9.858695652173912,2.0,2.772893772893773,360.6340819022457,-7.419847328244274,1.0687022900763359,1.5114503816793892,-0.34632683658170915,-0.0944527736131934,0.2818590704647676,101.17703379813044,31.927452673111112,2024-09-20 14:49:14.379760640+02:00
1726836554399.292,5.923913043478261,5.054347826086956,9.847826086956522,2.0,2.772893772893773,360.6340819022457,-7.32824427480916,0.7480916030534351,1.66412213740458,-0.34632683658170915,-0.09895052473763118,0.2848575712143928,101.17703379813044,31.927452673111112,2024-09-20 14:49:14.399291904+02:00
1726836554418.8232,5.956521739130435,5.043478260869565,9.858695652173912,2.0,2.772893772893773,360.6340819022457,-7.358778625954198,1.3129770992366412,1.5877862595419847,-0.34332833583208394,-0.10044977511244378,0.2818590704647676,101.17428324993728,31.927452673111112,2024-09-20 14:49:14.418823168+02:00
1726836554438.3545,5.923913043478261,5.0978260869565215,9.83695652173913,2.0,2.772893772893773,360.6340819022457,-7.435114503816793,0.6717557251908397,1.8931297709923662,-0.34182908545727136,-0.10794602698650674,0.280359820089955,101.17703379813044,31.927452673111112,2024-09-20 14:49:14.438354432+02:00
1726836554457.8855,5.923913043478261,5.08695652173913,9.83695652173913,2.0,2.76996336996337,361.0156043374769,-7.435114503816793,0.7480916030534351,1.9236641221374045,-0.3448275862068965,-0.10044977511244378,0.29535232383808097,101.17703379813044,31.927452673111112,2024-09-20 14:49:14.457885440+02:00
1726836554477.417,5.923913043478261,5.054347826086956,9.869565217391305,2.0,2.76996336996337,361.0156043374769,-7.221374045801526,0.9465648854961831,1.3740458015267174,-0.34782608695652173,-0.10794602698650674,0.2833583208395802,101.17428324993728,31.927452673111112,2024-09-20 14:49:14.477416960+02:00
1726836554496.9482,5.923913043478261,5.108695652173913,9.847826086956522,2.0,2.76996336996337,361.0156043374769,-7.312977099236641,0.8702290076335878,1.7099236641221374,-0.34782608695652173,-0.10794602698650674,0.2893553223388306,101.18253490232567,31.927452673111112,2024-09-20 14:49:14.496948224+02:00
1726836554516.4795,5.956521739130435,5.119565217391304,9.847826086956522,2.0,2.7684981684981684,361.2066684308018,-7.251908396946565,0.9007633587786259,1.618320610687023,-0.3493253373313343,-0.11244377811094453,0.2863568215892054,101.17428324993728,31.927452673111112,2024-09-20 14:49:14.516479488+02:00
1726836554536.0107,5.945652173913043,5.076086956521739,9.847826086956522,2.0,2.7684981684981684,361.2066684308018,-7.679389312977099,1.2519083969465647,1.8473282442748091,-0.35082458770614694,-0.10944527736131934,0.2863568215892054,101.17428324993728,31.927452673111112,2024-09-20 14:49:14.536010752+02:00
1726836554555.542,5.913043478260869,5.065217391304348,9.880434782608695,2.0,2.7684981684981684,361.2066684308018,-7.541984732824427,0.732824427480916,1.4351145038167938,-0.3538230884557721,-0.09295352323838081,0.2833583208395802,101.17428324993728,31.927452673111112,2024-09-20 14:49:14.555542016+02:00
1726836554575.0732,5.923913043478261,5.0978260869565215,9.91304347826087,2.0,2.7684981684981684,361.2066684308018,-7.206106870229007,0.8396946564885496,1.450381679389313,-0.3523238380809595,-0.095952023988006,0.2773613193403298,101.17978434892655,31.927452673111112,2024-09-20 14:49:14.575073280+02:00
1726836554594.6045,5.923913043478261,5.076086956521739,9.858695652173912,2.0,2.767032967032967,361.3979348689436,-7.49618320610687,1.083969465648855,1.3435114503816794,-0.3538230884557721,-0.095952023988006,0.2833583208395802,101.17703379813044,31.927452673111112,2024-09-20 14:49:14.594604544+02:00
1726836554614.1355,5.923913043478261,5.065217391304348,9.869565217391305,2.0,2.767032967032967,361.3979348689436,-7.3893129770992365,0.6106870229007634,1.2671755725190839,-0.34782608695652173,-0.10644677661169415,0.2863568215892054,101.17703379813044,31.927452673111112,2024-09-20 14:49:14.614135552+02:00
1726836554633.667,5.934782608695652,5.076086956521739,9.869565217391305,2.0,2.767032967032967,361.3979348689436,-7.343511450381679,0.6259541984732824,1.7099236641221374,-0.34632683658170915,-0.08695652173913043,0.2818590704647676,101.17703379813044,31.927452673111112,2024-09-20 14:49:14.633667072+02:00
1726836554653.1982,5.923913043478261,5.076086956521739,9.858695652173912,2.0,2.7655677655677655,361.58940397350995,-7.435114503816793,0.8244274809160305,1.5114503816793892,-0.35082458770614694,-0.10794602698650674,0.2908545727136432,101.18528545832777,31.927452673111112,2024-09-20 14:49:14.653198336+02:00
1726836554672.7295,5.956521739130435,5.08695652173913,9.880434782608695,2.0,2.7655677655677655,361.58940397350995,-7.2824427480916025,0.7633587786259541,1.083969465648855,-0.34782608695652173,-0.10044977511244378,0.2893553223388306,101.18253490232567,31.927452673111112,2024-09-20 14:49:14.672729600+02:00
1726836554692.2607,5.945652173913043,5.0978260869565215,9.891304347826086,2.0,2.7655677655677655,361.58940397350995,-7.343511450381679,1.0229007633587786,1.4351145038167938,-0.3493253373313343,-0.10644677661169415,0.2848575712143928,101.17153270434711,31.927452673111112,2024-09-20 14:49:14.692260864+02:00
1726836554711.792,5.945652173913043,5.08695652173913,9.869565217391305,2.0,2.7641025641025636,361.7810760667904,-7.511450381679389,0.9465648854961831,1.7099236641221374,-0.3493253373313343,-0.10344827586206896,0.2773613193403298,101.17428324993728,31.927452673111112,2024-09-20 14:49:14.711791872+02:00
1726836554731.3232,5.934782608695652,5.076086956521739,9.858695652173912,2.0,2.7626373626373626,361.97295147175817,-7.511450381679389,1.2519083969465647,1.6030534351145038,-0.3538230884557721,-0.0944527736131934,0.2818590704647676,101.18253490232567,31.927452673111112,2024-09-20 14:49:14.731323136+02:00
1726836554750.8545,5.913043478260869,5.065217391304348,9.869565217391305,2.0,2.7626373626373626,361.97295147175817,-7.633587786259541,1.1603053435114503,1.5114503816793892,-0.3523238380809595,-0.0944527736131934,0.28785607196401797,101.17703379813044,31.927452673111112,2024-09-20 14:49:14.750854400+02:00
1726836554770.3855,5.934782608695652,5.076086956521739,9.847826086956522,2.0,2.7626373626373626,361.97295147175817,-7.236641221374046,1.0381679389312977,1.7862595419847327,-0.3538230884557721,-0.10344827586206896,0.2848575712143928,101.17703379813044,31.927452673111112,2024-09-20 14:49:14.770385408+02:00
1726836554789.917,5.923913043478261,5.108695652173913,9.858695652173912,2.0,2.761172161172161,362.1650305120722,-7.343511450381679,1.0687022900763359,1.7251908396946565,-0.3448275862068965,-0.11544227886056971,0.2833583208395802,101.17428324993728,31.927452673111112,2024-09-20 14:49:14.789916928+02:00
1726836554809.4482,5.9021739130434785,5.08695652173913,9.858695652173912,2.0,2.758241758241758,362.54980079681275,-7.2824427480916025,1.0534351145038168,1.450381679389313,-0.3493253373313343,-0.11394302848575712,0.2788605697151424,101.17703379813044,31.927452673111112,2024-09-20 14:49:14.809448192+02:00
1726836554828.9795,5.934782608695652,5.08695652173913,9.869565217391305,2.0,2.7597069597069597,362.3573135120786,-7.49618320610687,0.7786259541984732,1.6030534351145038,-0.34632683658170915,-0.10194902548725637,0.28785607196401797,101.17428324993728,31.927452673111112,2024-09-20 14:49:14.828979456+02:00
1726836554848.5107,5.945652173913043,5.108695652173913,9.858695652173912,2.0,2.7597069597069597,362.3573135120786,-7.022900763358779,0.732824427480916,1.3282442748091603,-0.3493253373313343,-0.095952023988006,0.2848575712143928,101.17978434892655,31.927452673111112,2024-09-20 14:49:14.848510720+02:00
1726836554868.042,5.9021739130434785,5.08695652173913,9.869565217391305,2.0,2.758241758241758,362.54980079681275,-7.740458015267175,1.3587786259541985,1.66412213740458,-0.3493253373313343,-0.10044977511244378,0.2893553223388306,101.17978434892655,31.927452673111112,2024-09-20 14:49:14.868041984+02:00
1726836554887.5732,5.923913043478261,5.076086956521739,9.891304347826086,2.0,2.758241758241758,362.54980079681275,-7.66412213740458,0.8396946564885496,1.66412213740458,-0.35082458770614694,-0.10644677661169415,0.2908545727136432,101.17978434892655,31.927452673111112,2024-09-20 14:49:14.887573248+02:00
1726836554907.1045,5.934782608695652,5.065217391304348,9.880434782608695,2.0,2.758241758241758,362.54980079681275,-7.312977099236641,0.8702290076335878,1.6946564885496183,-0.3493253373313343,-0.09745127436281859,0.2848575712143928,101.17703379813044,31.927452673111112,2024-09-20 14:49:14.907104512+02:00
1726836554926.6355,5.923913043478261,5.08695652173913,9.83695652173913,2.0,2.7567765567765568,362.74249269200106,-7.267175572519084,1.0229007633587786,1.3282442748091603,-0.35532233883058467,-0.09745127436281859,0.28785607196401797,101.17428324993728,31.927452673111112,2024-09-20 14:49:14.926635520+02:00
1726836554946.167,5.945652173913043,5.076086956521739,9.847826086956522,2.0,2.7567765567765568,362.74249269200106,-7.6183206106870225,0.9312977099236641,1.6030534351145038,-0.34632683658170915,-0.10494752623688156,0.2863568215892054,101.17978434892655,31.927452673111112,2024-09-20 14:49:14.946167040+02:00
1726836554965.6982,5.956521739130435,5.119565217391304,9.858695652173912,2.0,2.7567765567765568,362.74249269200106,-7.465648854961832,0.5343511450381679,1.7251908396946565,-0.34632683658170915,-0.09745127436281859,0.2818590704647676,101.17978434892655,31.927452673111112,2024-09-20 14:49:14.965698304+02:00
1726836554985.2295,5.913043478260869,5.076086956521739,9.858695652173912,2.0,2.7553113553113553,362.93538952406277,-7.694656488549618,1.083969465648855,1.5267175572519083,-0.3403298350824588,-0.12443778110944527,0.29235382308845576,101.17428324993728,31.927452673111112,2024-09-20 14:49:14.985229568+02:00
1726836555004.7607,5.956521739130435,5.076086956521739,9.880434782608695,2.0,2.7553113553113553,362.93538952406277,-7.786259541984733,0.8854961832061068,1.618320610687023,-0.34632683658170915,-0.10344827586206896,0.2893553223388306,101.18253490232567,31.927452673111112,2024-09-20 14:49:15.004760832+02:00
1726836555024.292,5.945652173913043,5.0978260869565215,9.869565217391305,2.0,2.7553113553113553,362.93538952406277,-7.297709923664121,0.8854961832061068,1.5877862595419847,-0.3613193403298351,-0.10344827586206896,0.28785607196401797,101.17703379813044,31.927452673111112,2024-09-20 14:49:15.024292096+02:00
1726836555043.8232,5.9021739130434785,5.054347826086956,9.869565217391305,2.0,2.753846153846154,363.12849162011173,-7.740458015267175,1.2366412213740459,1.7099236641221374,-0.34632683658170915,-0.09745127436281859,0.2773613193403298,101.17703379813044,31.927452673111112,2024-09-20 14:49:15.043823360+02:00
1726836555063.3545,5.923913043478261,5.08695652173913,9.847826086956522,2.0,2.7523809523809524,363.3217993079585,-7.480916030534351,0.8244274809160305,1.7404580152671756,-0.3373313343328336,-0.095952023988006,0.2848575712143928,101.17428324993728,31.927452673111112,2024-09-20 14:49:15.063354368+02:00
1726836555082.8855,5.934782608695652,5.108695652173913,9.869565217391305,2.0,2.753846153846154,363.12849162011173,-7.816793893129771,0.7480916030534351,1.3587786259541985,-0.34632683658170915,-0.10344827586206896,0.2893553223388306,101.17703379813044,31.927452673111112,2024-09-20 14:49:15.082885376+02:00
1726836555102.417,5.9021739130434785,5.08695652173913,9.83695652173913,2.0,2.7523809523809524,363.3217993079585,-7.7251908396946565,0.8549618320610687,1.0381679389312977,-0.34782608695652173,-0.10494752623688156,0.2863568215892054,101.17428324993728,31.927452673111112,2024-09-20 14:49:15.102416896+02:00
1726836555121.9482,5.945652173913043,5.065217391304348,9.847826086956522,2.0,2.750915750915751,363.51531291611184,-7.6183206106870225,0.7175572519083969,1.9389312977099236,-0.34182908545727136,-0.11394302848575712,0.280359820089955,101.17978434892655,31.927452673111112,2024-09-20 14:49:15.121948160+02:00
1726836555141.4795,5.934782608695652,5.076086956521739,9.880434782608695,2.0,2.750915750915751,363.51531291611184,-7.374045801526718,0.4427480916030534,1.5572519083969465,-0.3523238380809595,-0.11244377811094453,0.2818590704647676,101.17703379813044,31.927452673111112,2024-09-20 14:49:15.141479424+02:00
1726836555161.0107,5.9021739130434785,5.08695652173913,9.847826086956522,2.0,2.7494505494505495,363.70903277378096,-7.358778625954198,1.0229007633587786,1.8931297709923662,-0.34332833583208394,-0.12143928035982009,0.2893553223388306,101.17428324993728,31.927452673111112,2024-09-20 14:49:15.161010688+02:00
1726836555180.542,5.945652173913043,5.065217391304348,9.858695652173912,2.0,2.7494505494505495,363.70903277378096,-7.343511450381679,1.0381679389312977,1.6946564885496183,-0.34632683658170915,-0.0944527736131934,0.2788605697151424,101.17978434892655,31.927452673111112,2024-09-20 14:49:15.180541952+02:00
1726836555200.0732,5.923913043478261,5.076086956521739,9.869565217391305,2.0,2.7494505494505495,363.70903277378096,-7.450381679389313,0.6717557251908397,1.6030534351145038,-0.35532233883058467,-0.09895052473763118,0.2833583208395802,101.17428324993728,31.927452673111112,2024-09-20 14:49:15.200073216+02:00
1726836555219.6045,5.891304347826087,5.08695652173913,9.858695652173912,2.0,2.7494505494505495,363.70903277378096,-7.755725190839694,0.9618320610687022,1.9236641221374045,-0.35532233883058467,-0.09895052473763118,0.2893553223388306,101.17978434892655,31.927452673111112,2024-09-20 14:49:15.219604480+02:00
1726836555239.1355,5.923913043478261,5.08695652173913,9.880434782608695,2.0,2.747985347985348,363.9029592108771,-7.3893129770992365,0.8244274809160305,1.5572519083969465,-0.35532233883058467,-0.09745127436281859,0.2893553223388306,101.17153270434711,31.927452673111112,2024-09-20 14:49:15.239135488+02:00
1726836555258.667,5.923913043478261,5.076086956521739,9.880434782608695,2.0,2.747985347985348,363.9029592108771,-7.694656488549618,0.5954198473282443,1.7862595419847327,-0.3493253373313343,-0.10044977511244378,0.2863568215892054,101.17978434892655,31.927452673111112,2024-09-20 14:49:15.258667008+02:00
1726836555278.1982,5.923913043478261,5.065217391304348,9.858695652173912,2.0,2.747985347985348,363.9029592108771,-7.511450381679389,1.0687022900763359,1.4045801526717556,-0.3403298350824588,-0.10644677661169415,0.28785607196401797,101.17703379813044,31.927452673111112,2024-09-20 14:49:15.278198272+02:00
1726836555297.7295,5.913043478260869,5.08695652173913,9.869565217391305,2.0,2.746520146520147,364.09709255801545,-7.419847328244274,0.8091603053435115,1.6335877862595418,-0.3523238380809595,-0.11244377811094453,0.2818590704647676,101.17978434892655,31.927452673111112,2024-09-20 14:49:15.297729536+02:00
1726836555317.2607,5.891304347826087,5.0978260869565215,9.869565217391305,2.0,2.746520146520147,364.09709255801545,-7.770992366412213,0.9465648854961831,1.816793893129771,-0.33883058470764615,-0.11244377811094453,0.28785607196401797,101.17153270434711,31.927452673111112,2024-09-20 14:49:15.317260800+02:00
1726836555336.792,5.956521739130435,5.076086956521739,9.880434782608695,2.0,2.746520146520147,364.09709255801545,-7.679389312977099,0.7938931297709924,1.5267175572519083,-0.3538230884557721,-0.10794602698650674,0.2833583208395802,101.17703379813044,31.927452673111112,2024-09-20 14:49:15.336792064+02:00
1726836555356.3232,5.923913043478261,5.08695652173913,9.858695652173912,2.0,2.746520146520147,364.09709255801545,-7.66412213740458,1.1603053435114503,1.6335877862595418,-0.3493253373313343,-0.10794602698650674,0.29235382308845576,101.17703379813044,31.927452673111112,2024-09-20 14:49:15.356323328+02:00
1726836555375.8545,5.913043478260869,5.076086956521739,9.880434782608695,2.0,2.745054945054945,364.2914331465172,-7.49618320610687,0.48854961832061067,1.7557251908396947,-0.35982008995502246,-0.10044977511244378,0.2833583208395802,101.17153270434711,31.927452673111112,2024-09-20 14:49:15.375854592+02:00
1726836555395.3855,5.945652173913043,5.108695652173913,9.847826086956522,2.0,2.7435897435897436,364.4859813084112,-7.572519083969465,0.8549618320610687,1.7099236641221374,-0.35532233883058467,-0.10194902548725637,0.2908545727136432,101.17703379813044,31.927452673111112,2024-09-20 14:49:15.395385600+02:00
1726836555414.917,5.923913043478261,5.076086956521739,9.869565217391305,2.0,2.7435897435897436,364.4859813084112,-7.236641221374046,1.114503816793893,1.450381679389313,-0.3493253373313343,-0.09895052473763118,0.2818590704647676,101.17978434892655,31.927452673111112,2024-09-20 14:49:15.414917120+02:00
1726836555434.4482,5.923913043478261,5.043478260869565,9.891304347826086,2.0,2.7435897435897436,364.4859813084112,-7.49618320610687,0.9923664122137404,1.5419847328244274,-0.34332833583208394,-0.11394302848575712,0.2773613193403298,101.16878216135996,31.927452673111112,2024-09-20 14:49:15.434448128+02:00
1726836555453.9795,5.934782608695652,5.08695652173913,9.880434782608695,2.0,2.742124542124542,364.680737376436,-7.343511450381679,0.8244274809160305,1.7251908396946565,-0.34782608695652173,-0.11244377811094453,0.2863568215892054,101.17978434892655,31.927452673111112,2024-09-20 14:49:15.453979392+02:00
1726836555473.5107,5.956521739130435,5.0978260869565215,9.858695652173912,2.0,2.742124542124542,364.680737376436,-7.3893129770992365,0.732824427480916,1.7404580152671756,-0.34782608695652173,-0.10944527736131934,0.28785607196401797,101.17703379813044,31.927452673111112,2024-09-20 14:49:15.473510656+02:00
1726836555493.042,5.9021739130434785,5.0978260869565215,9.858695652173912,2.0,2.742124542124542,364.680737376436,-7.526717557251908,0.9007633587786259,1.9083969465648853,-0.34782608695652173,-0.11094452773613193,0.28785607196401797,101.17153270434711,31.927452673111112,2024-09-20 14:49:15.493041920+02:00
1726836555512.5732,5.9021739130434785,5.043478260869565,9.858695652173912,2.0,2.7406593406593407,364.8757016840417,-7.511450381679389,0.47328244274809156,1.8625954198473282,-0.34182908545727136,-0.10944527736131934,0.2818590704647676,101.17428324993728,31.927452673111112,2024-09-20 14:49:15.512573184+02:00
1726836555532.1045,5.956521739130435,5.108695652173913,9.891304347826086,2.0,2.7406593406593407,364.8757016840417,-7.32824427480916,0.5343511450381679,1.83206106870229,-0.3538230884557721,-0.095952023988006,0.28785607196401797,101.17428324993728,31.927452673111112,2024-09-20 14:49:15.532104448+02:00
1726836555551.6355,5.923913043478261,5.119565217391304,9.891304347826086,2.0,2.7406593406593407,364.8757016840417,-7.465648854961832,1.0687022900763359,1.6030534351145038,-0.3493253373313343,-0.10794602698650674,0.2893553223388306,101.17703379813044,31.927452673111112,2024-09-20 14:49:15.551635456+02:00
1726836555571.167,5.934782608695652,5.08695652173913,9.858695652173912,2.0,2.7406593406593407,364.8757016840417,-7.404580152671755,0.5190839694656488,1.7099236641221374,-0.3523238380809595,-0.10494752623688156,0.2848575712143928,101.17428324993728,31.927452673111112,2024-09-20 14:49:15.571166976+02:00
1726836555590.6982,5.945652173913043,5.054347826086956,9.83695652173913,2.0,2.7406593406593407,364.8757016840417,-7.511450381679389,0.7633587786259541,1.297709923664122,-0.34782608695652173,-0.09745127436281859,0.2893553223388306,101.17978434892655,31.927452673111112,2024-09-20 14:49:15.590698240+02:00
1726836555610.2295,5.967391304347826,5.054347826086956,9.869565217391305,2.0,2.7406593406593407,364.8757016840417,-7.465648854961832,0.9007633587786259,1.4351145038167938,-0.3523238380809595,-0.10494752623688156,0.2863568215892054,101.17153270434711,31.927452673111112,2024-09-20 14:49:15.610229504+02:00
1726836555629.7607,5.923913043478261,5.065217391304348,9.869565217391305,2.0,2.7391941391941392,365.0708745653918,-7.770992366412213,0.6870229007633587,1.7099236641221374,-0.34632683658170915,-0.10944527736131934,0.28785607196401797,101.17703379813044,31.927452673111112,2024-09-20 14:49:15.629760768+02:00
1726836555649.292,5.945652173913043,5.032608695652174,9.847826086956522,2.0,2.7391941391941392,365.0708745653918,-7.374045801526718,0.8702290076335878,1.8473282442748091,-0.34182908545727136,-0.10644677661169415,0.28785607196401797,101.17978434892655,31.927452673111112,2024-09-20 14:49:15.649292032+02:00
1726836555668.8232,5.923913043478261,5.076086956521739,9.869565217391305,2.0,2.7391941391941392,365.0708745653918,-7.374045801526718,0.9007633587786259,1.7404580152671756,-0.34632683658170915,-0.11094452773613193,0.29235382308845576,101.17978434892655,31.927452673111112,2024-09-20 14:49:15.668823296+02:00
1726836555688.3545,5.945652173913043,5.076086956521739,9.858695652173912,2.0,2.7377289377289373,365.2662563553653,-7.557251908396946,0.7175572519083969,1.7404580152671756,-0.3538230884557721,-0.10194902548725637,0.2863568215892054,101.17153270434711,31.927452673111112,2024-09-20 14:49:15.688354560+02:00
1726836555707.8855,5.934782608695652,5.076086956521739,9.858695652173912,2.0,2.7377289377289373,365.2662563553653,-7.343511450381679,0.6259541984732824,1.7557251908396947,-0.35082458770614694,-0.095952023988006,0.29235382308845576,101.17428324993728,31.927452673111112,2024-09-20 14:49:15.707885568+02:00
1726836555727.417,5.956521739130435,5.076086956521739,9.891304347826086,2.0,2.7377289377289373,365.2662563553653,-7.465648854961832,0.5038167938931297,1.8931297709923662,-0.3523238380809595,-0.10344827586206896,0.2833583208395802,101.17428324993728,31.927452673111112,2024-09-20 14:49:15.727417088+02:00
1726836555746.9482,5.934782608695652,5.076086956521739,9.869565217391305,2.0,2.7377289377289373,365.2662563553653,-7.526717557251908,0.7480916030534351,1.7709923664122136,-0.35082458770614694,-0.10944527736131934,0.2818590704647676,101.17428324993728,31.927452673111112,2024-09-20 14:49:15.746948352+02:00
1726836555766.4795,5.869565217391304,5.076086956521739,9.826086956521738,2.0,2.7377289377289373,365.2662563553653,-7.297709923664121,0.9770992366412213,1.8625954198473282,-0.3448275862068965,-0.10794602698650674,0.2818590704647676,101.17428324993728,31.927452673111112,2024-09-20 14:49:15.766479616+02:00
1726836555786.0107,5.934782608695652,5.076086956521739,9.869565217391305,2.0,2.7377289377289373,365.2662563553653,-7.587786259541985,0.9007633587786259,1.5572519083969465,-0.3493253373313343,-0.10194902548725637,0.2818590704647676,101.17703379813044,31.927452673111112,2024-09-20 14:49:15.786010624+02:00
1726836555805.542,5.923913043478261,5.108695652173913,9.880434782608695,2.0,2.7362637362637363,365.4618473895582,-7.3893129770992365,0.732824427480916,1.5725190839694656,-0.34782608695652173,-0.10644677661169415,0.28785607196401797,101.17153270434711,31.927452673111112,2024-09-20 14:49:15.805541888+02:00
1726836555825.0732,5.913043478260869,5.08695652173913,9.891304347826086,2.0,2.7362637362637363,365.4618473895582,-7.557251908396946,0.7633587786259541,1.7251908396946565,-0.3493253373313343,-0.10044977511244378,0.280359820089955,101.17978434892655,31.927452673111112,2024-09-20 14:49:15.825073152+02:00
1726836555844.6045,5.923913043478261,5.065217391304348,9.880434782608695,2.0,2.7377289377289373,365.2662563553653,-7.465648854961832,0.32061068702290074,1.6030534351145038,-0.35082458770614694,-0.10794602698650674,0.2893553223388306,101.17703379813044,31.927452673111112,2024-09-20 14:49:15.844604416+02:00
1726836555864.1355,5.923913043478261,5.065217391304348,9.891304347826086,2.0,2.7362637362637363,365.4618473895582,-7.66412213740458,0.9007633587786259,1.648854961832061,-0.3448275862068965,-0.0914542728635682,0.29235382308845576,101.17428324993728,31.927452673111112,2024-09-20 14:49:15.864135424+02:00
1726836555883.667,5.934782608695652,5.076086956521739,9.891304347826086,2.0,2.7362637362637363,365.4618473895582,-7.633587786259541,1.0229007633587786,1.2366412213740459,-0.3568215892053973,-0.10194902548725637,0.2818590704647676,101.17703379813044,31.927452673111112,2024-09-20 14:49:15.883666944+02:00
1726836555903.1982,5.880434782608695,5.0978260869565215,9.847826086956522,2.0,2.7377289377289373,365.2662563553653,-7.541984732824427,1.0076335877862594,1.618320610687023,-0.34782608695652173,-0.10044977511244378,0.2893553223388306,101.17428324993728,31.927452673111112,2024-09-20 14:49:15.903198208+02:00
1726836555922.7295,5.923913043478261,5.054347826086956,9.880434782608695,2.0,2.7362637362637363,365.4618473895582,-7.374045801526718,0.6717557251908397,1.8778625954198473,-0.34332833583208394,-0.10794602698650674,0.2818590704647676,101.17703379813044,31.927452673111112,2024-09-20 14:49:15.922729472+02:00
1726836555942.2607,5.945652173913043,5.08695652173913,9.891304347826086,2.0,2.7362637362637363,365.4618473895582,-7.694656488549618,0.5190839694656488,1.6793893129770991,-0.3493253373313343,-0.11244377811094453,0.28785607196401797,101.17428324993728,31.927452673111112,2024-09-20 14:49:15.942260736+02:00
1726836555961.792,5.913043478260869,5.08695652173913,9.858695652173912,2.0,2.7377289377289373,365.2662563553653,-7.511450381679389,0.732824427480916,1.4198473282442747,-0.34782608695652173,-0.10944527736131934,0.2893553223388306,101.17513557604158,31.932508603861788,2024-09-20 14:49:15.961792+02:00
1726836555981.3232,5.923913043478261,5.065217391304348,9.858695652173912,2.0,2.7377289377289373,365.2662563553653,-7.343511450381679,0.8702290076335878,1.5267175572519083,-0.3493253373313343,-0.11094452773613193,0.2863568215892054,101.17513557604158,31.932508603861788,2024-09-20 14:49:15.981323264+02:00
1726836556000.8545,5.967391304347826,5.08695652173913,9.869565217391305,2.0,2.7377289377289373,365.2662563553653,-7.312977099236641,0.5954198473282443,1.4809160305343512,-0.3538230884557721,-0.10194902548725637,0.2893553223388306,101.17788614656298,31.932508603861788,2024-09-20 14:49:16.000854528+02:00
1726836556020.3855,5.913043478260869,5.08695652173913,9.891304347826086,2.0,2.7377289377289373,365.2662563553653,-7.694656488549618,1.0687022900763359,1.9236641221374045,-0.3523238380809595,-0.10644677661169415,0.2908545727136432,101.17513557604158,31.932508603861788,2024-09-20 14:49:16.020385536+02:00
1726836556039.917,5.923913043478261,5.0978260869565215,9.858695652173912,2.0,2.7377289377289373,365.2662563553653,-7.49618320610687,0.6870229007633587,1.297709923664122,-0.35532233883058467,-0.0944527736131934,0.2908545727136432,101.1806367196874,31.932508603861788,2024-09-20 14:49:16.039917056+02:00
1726836556059.4482,5.923913043478261,5.0978260869565215,9.847826086956522,2.0,2.7377289377289373,365.2662563553653,-7.435114503816793,0.8091603053435115,1.5114503816793892,-0.3448275862068965,-0.08545727136431784,0.29385307346326833,101.17513557604158,31.932508603861788,2024-09-20 14:49:16.059448320+02:00
1726836556078.9795,5.923913043478261,5.08695652173913,9.891304347826086,2.0,2.7391941391941392,365.0708745653918,-7.450381679389313,0.8854961832061068,1.8473282442748091,-0.3493253373313343,-0.10194902548725637,0.29685157421289354,101.1806367196874,31.932508603861788,2024-09-20 14:49:16.078979584+02:00
1726836556098.5107,5.923913043478261,5.08695652173913,9.869565217391305,2.0,2.7391941391941392,365.0708745653918,-7.511450381679389,1.0381679389312977,1.7099236641221374,-0.3493253373313343,-0.11394302848575712,0.2818590704647676,101.17788614656298,31.932508603861788,2024-09-20 14:49:16.098510848+02:00
1726836556118.042,5.934782608695652,5.08695652173913,9.847826086956522,2.0,2.7391941391941392,365.0708745653918,-7.419847328244274,0.7786259541984732,2.091603053435114,-0.3448275862068965,-0.11244377811094453,0.29385307346326833,101.16688388009555,31.932508603861788,2024-09-20 14:49:16.118042112+02:00
1726836556137.5732,5.934782608695652,5.076086956521739,9.880434782608695,2.0,2.7391941391941392,365.0708745653918,-7.480916030534351,0.9465648854961831,1.2366412213740459,-0.35082458770614694,-0.10494752623688156,0.29235382308845576,101.17788614656298,31.932508603861788,2024-09-20 14:49:16.137573120+02:00
1726836556157.1045,5.923913043478261,5.076086956521739,9.869565217391305,2.0,2.7391941391941392,365.0708745653918,-7.374045801526718,0.7633587786259541,1.6793893129770991,-0.34782608695652173,-0.10794602698650674,0.28785607196401797,101.17788614656298,31.932508603861788,2024-09-20 14:49:16.157104384+02:00
1726836556176.6355,5.934782608695652,5.076086956521739,9.847826086956522,2.0,2.7406593406593407,364.8757016840417,-7.709923664122137,1.1908396946564885,1.450381679389313,-0.35532233883058467,-0.10944527736131934,0.2908545727136432,101.17513557604158,31.932508603861788,2024-09-20 14:49:16.176635392+02:00
1726836556196.167,5.923913043478261,5.08695652173913,9.880434782608695,2.0,2.7406593406593407,364.8757016840417,-7.221374045801526,0.8549618320610687,1.4198473282442747,-0.35082458770614694,-0.09895052473763118,0.29685157421289354,101.17788614656298,31.932508603861788,2024-09-20 14:49:16.196166912+02:00
1726836556215.6982,5.956521739130435,5.08695652173913,9.858695652173912,2.0,2.7391941391941392,365.0708745653918,-7.038167938931298,0.48854961832061067,1.7862595419847327,-0.3493253373313343,-0.095952023988006,0.2863568215892054,101.17788614656298,31.932508603861788,2024-09-20 14:49:16.215698176+02:00
1726836556235.2295,5.9021739130434785,5.08695652173913,9.847826086956522,2.0,2.7406593406593407,364.8757016840417,-7.587786259541985,1.0229007633587786,1.4961832061068703,-0.34782608695652173,-0.10494752623688156,0.2893553223388306,101.17238500812323,31.932508603861788,2024-09-20 14:49:16.235229440+02:00
1726836556254.7607,5.880434782608695,5.08695652173913,9.869565217391305,2.0,2.742124542124542,364.680737376436,-7.557251908396946,1.099236641221374,1.7709923664122136,-0.3448275862068965,-0.11094452773613193,0.2863568215892054,101.17238500812323,31.932508603861788,2024-09-20 14:49:16.254760704+02:00
1726836556274.292,5.967391304347826,5.108695652173913,9.891304347826086,2.0,2.742124542124542,364.680737376436,-6.916030534351145,0.47328244274809156,1.9389312977099236,-0.34332833583208394,-0.10494752623688156,0.2848575712143928,101.1806367196874,31.932508603861788,2024-09-20 14:49:16.274291968+02:00
1726836556293.8232,5.923913043478261,5.076086956521739,9.869565217391305,2.0,2.742124542124542,364.680737376436,-7.66412213740458,0.8854961832061068,1.6335877862595418,-0.3583208395802099,-0.10344827586206896,0.29535232383808097,101.1806367196874,31.932508603861788,2024-09-20 14:49:16.293823232+02:00
1726836556313.3545,5.945652173913043,5.032608695652174,9.847826086956522,2.0,2.7435897435897436,364.4859813084112,-7.7251908396946565,1.2213740458015268,1.5267175572519083,-0.34332833583208394,-0.10794602698650674,0.28785607196401797,101.17788614656298,31.932508603861788,2024-09-20 14:49:16.313354496+02:00
1726836556332.8855,5.934782608695652,5.08695652173913,9.880434782608695,2.0,2.742124542124542,364.680737376436,-7.343511450381679,0.6564885496183206,1.66412213740458,-0.3523238380809595,-0.10644677661169415,0.29235382308845576,101.17788614656298,31.932508603861788,2024-09-20 14:49:16.332885504+02:00
1726836556352.417,5.923913043478261,5.08695652173913,9.858695652173912,2.0,2.7435897435897436,364.4859813084112,-7.450381679389313,1.0534351145038168,1.9083969465648853,-0.3493253373313343,-0.10344827586206896,0.2863568215892054,101.17513557604158,31.932508603861788,2024-09-20 14:49:16.352417024+02:00
1726836556371.9482,5.945652173913043,5.076086956521739,9.869565217391305,2.0,2.7435897435897436,364.4859813084112,-7.526717557251908,0.9465648854961831,1.5114503816793892,-0.35082458770614694,-0.10194902548725637,0.28785607196401797,101.17513557604158,31.932508603861788,2024-09-20 14:49:16.371948288+02:00
1726836556391.4795,5.9021739130434785,5.076086956521739,9.826086956521738,2.0,2.7435897435897436,364.4859813084112,-7.511450381679389,1.297709923664122,1.648854961832061,-0.34632683658170915,-0.11094452773613193,0.29385307346326833,101.17238500812323,31.932508603861788,2024-09-20 14:49:16.391479552+02:00
1726836556411.0107,5.923913043478261,5.076086956521739,9.858695652173912,2.0,2.7435897435897436,364.4859813084112,-7.435114503816793,0.9007633587786259,2.015267175572519,-0.34632683658170915,-0.0944527736131934,0.29385307346326833,101.1806367196874,31.932508603861788,2024-09-20 14:49:16.411010816+02:00
1726836556430.542,5.956521739130435,5.076086956521739,9.869565217391305,2.0,2.745054945054945,364.2914331465172,-7.3893129770992365,0.9923664122137404,1.4809160305343512,-0.3448275862068965,-0.11394302848575712,0.2818590704647676,101.17788614656298,31.932508603861788,2024-09-20 14:49:16.430542080+02:00
1726836556450.0732,5.913043478260869,5.130434782608695,9.880434782608695,2.0,2.745054945054945,364.2914331465172,-7.572519083969465,0.6870229007633587,2.030534351145038,-0.34632683658170915,-0.1169415292353823,0.2908545727136432,101.17238500812323,31.932508603861788,2024-09-20 14:49:16.450073344+02:00
1726836556469.6045,5.913043478260869,5.08695652173913,9.858695652173912,2.0,2.745054945054945,364.2914331465172,-7.587786259541985,0.564885496183206,1.4961832061068703,-0.34782608695652173,-0.10794602698650674,0.2773613193403298,101.17788614656298,31.932508603861788,2024-09-20 14:49:16.469604608+02:00
1726836556489.1355,5.923913043478261,5.076086956521739,9.880434782608695,2.0,2.745054945054945,364.2914331465172,-7.2824427480916025,0.6870229007633587,1.7099236641221374,-0.3448275862068965,-0.10194902548725637,0.2818590704647676,101.17513557604158,31.932508603861788,2024-09-20 14:49:16.489135616+02:00
1726836556508.667,5.934782608695652,5.0978260869565215,9.847826086956522,2.0,2.745054945054945,364.2914331465172,-7.49618320610687,0.5343511450381679,1.6030534351145038,-0.3568215892053973,-0.09895052473763118,0.2908545727136432,101.17238500812323,31.932508603861788,2024-09-20 14:49:16.508666880+02:00
1726836556528.1982,5.9021739130434785,5.054347826086956,9.847826086956522,2.0,2.746520146520147,364.09709255801545,-7.312977099236641,0.8549618320610687,1.5114503816793892,-0.34782608695652173,-0.10194902548725637,0.28785607196401797,101.17788614656298,31.932508603861788,2024-09-20 14:49:16.528198144+02:00
1726836556547.7295,5.945652173913043,5.021739130434782,9.869565217391305,2.0,2.746520146520147,364.09709255801545,-7.343511450381679,0.48854961832061067,1.7251908396946565,-0.34782608695652173,-0.10344827586206896,0.29235382308845576,101.17238500812323,31.932508603861788,2024-09-20 14:49:16.547729408+02:00
1726836556567.2607,5.945652173913043,5.065217391304348,9.869565217391305,2.0,2.745054945054945,364.2914331465172,-7.206106870229007,0.7022900763358778,1.3893129770992365,-0.34332833583208394,-0.11094452773613193,0.2773613193403298,101.17513557604158,31.932508603861788,2024-09-20 14:49:16.567260672+02:00
1726836556586.792,5.891304347826087,5.08695652173913,9.847826086956522,2.0,2.746520146520147,364.09709255801545,-7.648854961832061,0.9770992366412213,1.7251908396946565,-0.34632683658170915,-0.11094452773613193,0.2908545727136432,101.17238500812323,31.932508603861788,2024-09-20 14:49:16.586791936+02:00
1726836556606.3232,5.956521739130435,5.065217391304348,9.880434782608695,2.0,2.746520146520147,364.09709255801545,-7.633587786259541,0.8396946564885496,1.7404580152671756,-0.3403298350824588,-0.10344827586206896,0.28785607196401797,101.17788614656298,31.932508603861788,2024-09-20 14:49:16.606323200+02:00
1726836556625.8545,5.945652173913043,5.108695652173913,9.847826086956522,2.0,2.746520146520147,364.09709255801545,-7.374045801526718,0.7022900763358778,1.7709923664122136,-0.3538230884557721,-0.10644677661169415,0.2893553223388306,101.17788614656298,31.932508603861788,2024-09-20 14:49:16.625854464+02:00
1726836556645.3855,5.945652173913043,5.065217391304348,9.847826086956522,2.0,2.746520146520147,364.09709255801545,-7.709923664122137,1.4809160305343512,1.6946564885496183,-0.3568215892053973,-0.09895052473763118,0.2893553223388306,101.17513557604158,31.932508603861788,2024-09-20 14:49:16.645385472+02:00
1726836556664.917,5.967391304347826,5.108695652173913,9.858695652173912,2.0,2.746520146520147,364.09709255801545,-7.465648854961832,0.7480916030534351,1.4961832061068703,-0.3523238380809595,-0.09745127436281859,0.2833583208395802,101.16963444280788,31.932508603861788,2024-09-20 14:49:16.664916992+02:00
1726836556684.4482,5.934782608695652,5.08695652173913,9.869565217391305,2.0,2.745054945054945,364.2914331465172,-7.755725190839694,0.6870229007633587,1.5725190839694656,-0.35082458770614694,-0.09745127436281859,0.2908545727136432,101.17238500812323,31.932508603861788,2024-09-20 14:49:16.684448256+02:00
1726836556703.9795,5.956521739130435,5.08695652173913,9.847826086956522,2.0,2.745054945054945,364.2914331465172,-7.694656488549618,0.5801526717557252,1.7557251908396947,-0.34782608695652173,-0.10494752623688156,0.29685157421289354,101.17513557604158,31.932508603861788,2024-09-20 14:49:16.703979520+02:00
1726836556723.5107,5.923913043478261,5.108695652173913,9.83695652173913,2.0,2.745054945054945,364.2914331465172,-7.511450381679389,1.3435114503816794,1.7557251908396947,-0.34632683658170915,-0.10344827586206896,0.2818590704647676,101.17788614656298,31.932508603861788,2024-09-20 14:49:16.723510784+02:00
1726836556743.042,5.913043478260869,5.076086956521739,9.869565217391305,2.0,2.746520146520147,364.09709255801545,-7.465648854961832,0.48854961832061067,1.6793893129770991,-0.34632683658170915,-0.10794602698650674,0.2863568215892054,101.17513557604158,31.932508603861788,2024-09-20 14:49:16.743042048+02:00
1726836556762.5732,5.9021739130434785,5.076086956521739,9.880434782608695,2.0,2.746520146520147,364.09709255801545,-7.679389312977099,1.1450381679389312,1.6030534351145038,-0.33883058470764615,-0.09895052473763118,0.2893553223388306,101.17238500812323,31.932508603861788,2024-09-20 14:49:16.762573312+02:00
1726836556782.1045,5.956521739130435,5.0978260869565215,9.902173913043478,2.0,2.746520146520147,364.09709255801545,-7.435114503816793,0.48854961832061067,1.5419847328244274,-0.34782608695652173,-0.10344827586206896,0.28785607196401797,101.16963444280788,31.932508603861788,2024-09-20 14:49:16.782104576+02:00
1726836556801.6355,5.956521739130435,5.076086956521739,9.880434782608695,2.0,2.745054945054945,364.2914331465172,-7.603053435114504,0.549618320610687,1.282442748091603,-0.34632683658170915,-0.10194902548725637,0.2908545727136432,101.17513557604158,31.932508603861788,2024-09-20 14:49:16.801635584+02:00
1726836556821.167,5.913043478260869,5.054347826086956,9.858695652173912,2.0,2.746520146520147,364.09709255801545,-7.740458015267175,0.8244274809160305,1.8931297709923662,-0.34332833583208394,-0.10194902548725637,0.2863568215892054,101.17513557604158,31.932508603861788,2024-09-20 14:49:16.821167104+02:00
1726836556840.6982,5.967391304347826,5.076086956521739,9.858695652173912,2.0,2.746520146520147,364.09709255801545,-7.32824427480916,0.42748091603053434,1.4045801526717556,-0.34782608695652173,-0.09295352323838081,0.2848575712143928,101.17513557604158,31.932508603861788,2024-09-20 14:49:16.840698368+02:00
1726836556860.2295,5.913043478260869,5.08695652173913,9.891304347826086,2.0,2.746520146520147,364.09709255801545,-7.8473282442748085,0.732824427480916,1.3740458015267174,-0.34332833583208394,-0.10344827586206896,0.29385307346326833,101.17238500812323,31.932508603861788,2024-09-20 14:49:16.860229376+02:00
1726836556879.7607,5.923913043478261,5.076086956521739,9.858695652173912,2.0,2.746520146520147,364.09709255801545,-7.6183206106870225,0.564885496183206,1.7557251908396947,-0.3523238380809595,-0.10044977511244378,0.2818590704647676,101.17238500812323,31.932508603861788,2024-09-20 14:49:16.879760640+02:00
1726836556899.292,5.967391304347826,5.0978260869565215,9.869565217391305,2.0,2.746520146520147,364.09709255801545,-7.32824427480916,0.47328244274809156,1.3587786259541985,-0.35082458770614694,-0.10794602698650674,0.2893553223388306,101.17788614656298,31.932508603861788,2024-09-20 14:49:16.899291904+02:00
1726836556918.8232,5.913043478260869,5.0978260869565215,9.83695652173913,2.0,2.745054945054945,364.2914331465172,-7.862595419847328,0.8091603053435115,1.3587786259541985,-0.35082458770614694,-0.10944527736131934,0.29385307346326833,101.17788614656298,31.932508603861788,2024-09-20 14:49:16.918823168+02:00
1726836556938.3545,5.913043478260869,5.065217391304348,9.858695652173912,2.0,2.745054945054945,364.2914331465172,-7.267175572519084,0.732824427480916,1.5572519083969465,-0.3373313343328336,-0.11394302848575712,0.2893553223388306,101.17513557604158,31.932508603861788,2024-09-20 14:49:16.938354432+02:00
1726836556957.8855,5.989130434782608,5.076086956521739,9.880434782608695,2.0,2.745054945054945,364.2914331465172,-7.419847328244274,0.38167938931297707,1.648854961832061,-0.33883058470764615,-0.10794602698650674,0.2848575712143928,101.1768402366211,31.942620466236257,2024-09-20 14:49:16.957885440+02:00
1726836556977.417,5.913043478260869,5.065217391304348,9.826086956521738,2.0,2.746520146520147,364.09709255801545,-7.694656488549618,0.9312977099236641,1.465648854961832,-0.3448275862068965,-0.09895052473763118,0.29385307346326833,101.1768402366211,31.942620466236257,2024-09-20 14:49:16.977416960+02:00
1726836556996.9482,5.934782608695652,5.054347826086956,9.869565217391305,2.0,2.746520146520147,364.09709255801545,-7.3893129770992365,0.6870229007633587,1.3587786259541985,-0.34332833583208394,-0.10194902548725637,0.2908545727136432,101.17959085179913,31.942620466236257,2024-09-20 14:49:16.996948224+02:00
1726836557016.4795,5.967391304347826,5.076086956521739,9.891304347826086,2.0,2.746520146520147,364.09709255801545,-7.099236641221374,-0.030534351145038167,1.4351145038167938,-0.3493253373313343,-0.08545727136431784,0.28785607196401797,101.1740896240462,31.942620466236257,2024-09-20 14:49:17.016479488+02:00
1726836557036.0107,5.956521739130435,5.08695652173913,9.858695652173912,2.0,2.746520146520147,364.09709255801545,-7.877862595419847,0.9618320610687022,1.6793893129770991,-0.35082458770614694,-0.10644677661169415,0.2908545727136432,101.1740896240462,31.942620466236257,2024-09-20 14:49:17.036010752+02:00
1726836557055.542,5.934782608695652,5.08695652173913,9.847826086956522,2.0,2.746520146520147,364.09709255801545,-7.49618320610687,0.7786259541984732,1.7404580152671756,-0.3493253373313343,-0.0914542728635682,0.29235382308845576,101.1768402366211,31.942620466236257,2024-09-20 14:49:17.055542016+02:00
1726836557075.0732,5.967391304347826,5.076086956521739,9.880434782608695,2.0,2.746520146520147,364.09709255801545,-7.6183206106870225,0.564885496183206,1.66412213740458,-0.34782608695652173,-0.11094452773613193,0.29235382308845576,101.1768402366211,31.942620466236257,2024-09-20 14:49:17.075073280+02:00
1726836557094.6045,5.945652173913043,5.065217391304348,9.847826086956522,2.0,2.746520146520147,364.09709255801545,-7.83206106870229,0.8702290076335878,1.648854961832061,-0.3568215892053973,-0.10944527736131934,0.280359820089955,101.1740896240462,31.942620466236257,2024-09-20 14:49:17.094604544+02:00
1726836557114.1355,5.923913043478261,5.08695652173913,9.858695652173912,2.0,2.746520146520147,364.09709255801545,-7.526717557251908,0.9007633587786259,1.5267175572519083,-0.3523238380809595,-0.10344827586206896,0.2893553223388306,101.1768402366211,31.942620466236257,2024-09-20 14:49:17.114135552+02:00
1726836557133.667,5.945652173913043,5.08695652173913,9.891304347826086,2.0,2.746520146520147,364.09709255801545,-7.297709923664121,0.7938931297709924,1.9236641221374045,-0.35532233883058467,-0.11094452773613193,0.2908545727136432,101.17959085179913,31.942620466236257,2024-09-20 14:49:17.133667072+02:00
1726836557153.1982,5.956521739130435,5.08695652173913,9.880434782608695,2.0,2.746520146520147,364.09709255801545,-7.648854961832061,0.732824427480916,1.5572519083969465,-0.3448275862068965,-0.11094452773613193,0.28785607196401797,101.18234146958027,31.942620466236257,2024-09-20 14:49:17.153198336+02:00
1726836557172.7295,5.891304347826087,5.065217391304348,9.847826086956522,2.0,2.746520146520147,364.09709255801545,-7.709923664122137,0.6717557251908397,1.7862595419847327,-0.3403298350824588,-0.10494752623688156,0.2908545727136432,101.18234146958027,31.942620466236257,2024-09-20 14:49:17.172729600+02:00
1726836557192.2607,5.945652173913043,5.065217391304348,9.880434782608695,2.0,2.746520146520147,364.09709255801545,-7.038167938931298,0.4580152671755725,1.7404580152671756,-0.34782608695652173,-0.10644677661169415,0.2908545727136432,101.16583780194011,31.942620466236257,2024-09-20 14:49:17.192260864+02:00
1726836557211.792,5.934782608695652,5.065217391304348,9.847826086956522,2.0,2.746520146520147,364.09709255801545,-7.587786259541985,0.5343511450381679,1.7404580152671756,-0.35082458770614694,-0.10344827586206896,0.28785607196401797,101.17959085179913,31.942620466236257,2024-09-20 14:49:17.211791872+02:00
1726836557231.3232,5.923913043478261,5.076086956521739,9.847826086956522,2.0,2.745054945054945,364.2914331465172,-7.404580152671755,0.9007633587786259,1.5877862595419847,-0.3493253373313343,-0.10644677661169415,0.28785607196401797,101.1768402366211,31.942620466236257,2024-09-20 14:49:17.231323136+02:00
1726836557250.8545,5.923913043478261,5.0978260869565215,9.869565217391305,2.0,2.746520146520147,364.09709255801545,-7.557251908396946,0.5801526717557252,1.7404580152671756,-0.3448275862068965,-0.10644677661169415,0.29385307346326833,101.17959085179913,31.942620466236257,2024-09-20 14:49:17.250854400+02:00
1726836557270.3855,5.967391304347826,5.08695652173913,9.891304347826086,2.0,2.745054945054945,364.2914331465172,-7.419847328244274,0.7633587786259541,2.0,-0.3523238380809595,-0.11394302848575712,0.2863568215892054,101.18234146958027,31.942620466236257,2024-09-20 14:49:17.270385408+02:00
1726836557289.917,5.967391304347826,5.08695652173913,9.891304347826086,2.0,2.745054945054945,364.2914331465172,-7.603053435114504,0.8244274809160305,1.6030534351145038,-0.34782608695652173,-0.0944527736131934,0.29385307346326833,101.17959085179913,31.942620466236257,2024-09-20 14:49:17.289916928+02:00
1726836557309.4482,5.956521739130435,5.054347826086956,9.83695652173913,2.0,2.745054945054945,364.2914331465172,-7.480916030534351,0.9465648854961831,1.6335877862595418,-0.3523238380809595,-0.10344827586206896,0.2893553223388306,101.18234146958027,31.942620466236257,2024-09-20 14:49:17.309448192+02:00
1726836557328.9795,5.934782608695652,5.076086956521739,9.858695652173912,2.0,2.745054945054945,364.2914331465172,-7.435114503816793,0.9312977099236641,1.7557251908396947,-0.35082458770614694,-0.10494752623688156,0.2908545727136432,101.1768402366211,31.942620466236257,2024-09-20 14:49:17.328979456+02:00
1726836557348.5107,5.934782608695652,5.0978260869565215,9.847826086956522,2.0,2.745054945054945,364.2914331465172,-7.511450381679389,0.5343511450381679,1.66412213740458,-0.34182908545727136,-0.08995502248875561,0.2848575712143928,101.16583780194011,31.942620466236257,2024-09-20 14:49:17.348510720+02:00
1726836557368.042,5.945652173913043,5.054347826086956,9.869565217391305,2.0,2.745054945054945,364.2914331465172,-7.374045801526718,1.0076335877862594,1.5419847328244274,-0.34632683658170915,-0.10794602698650674,0.2863568215892054,101.17959085179913,31.942620466236257,2024-09-20 14:49:17.368041984+02:00
1726836557387.5732,5.934782608695652,5.065217391304348,9.902173913043478,2.0,2.745054945054945,364.2914331465172,-7.66412213740458,0.7480916030534351,1.5114503816793892,-0.3493253373313343,-0.11394302848575712,0.2893553223388306,101.1768402366211,31.942620466236257,2024-09-20 14:49:17.387573248+02:00
1726836557407.1045,5.956521739130435,5.119565217391304,9.858695652173912,2.0,2.745054945054945,364.2914331465172,-7.465648854961832,0.8244274809160305,1.7862595419847327,-0.3493253373313343,-0.1169415292353823,0.29385307346326833,101.1850920899645,31.942620466236257,2024-09-20 14:49:17.407104512+02:00
1726836557426.6355,5.945652173913043,5.076086956521739,9.880434782608695,2.0,2.7435897435897436,364.4859813084112,-7.267175572519084,0.9312977099236641,1.7709923664122136,-0.35082458770614694,-0.11094452773613193,0.2833583208395802,101.1768402366211,31.942620466236257,2024-09-20 14:49:17.426635520+02:00
1726836557446.167,5.956521739130435,5.065217391304348,9.858695652173912,2.0,2.745054945054945,364.2914331465172,-7.511450381679389,1.0534351145038168,1.618320610687023,-0.3448275862068965,-0.10644677661169415,0.2893553223388306,101.1768402366211,31.942620466236257,2024-09-20 14:49:17.446167040+02:00
1726836557465.6982,5.923913043478261,5.076086956521739,9.880434782608695,2.0,2.745054945054945,364.2914331465172,-7.419847328244274,0.4580152671755725,1.618320610687023,-0.3493253373313343,-0.09895052473763118,0.2908545727136432,101.17959085179913,31.942620466236257,2024-09-20 14:49:17.465698304+02:00
1726836557485.2295,5.913043478260869,5.0978260869565215,9.858695652173912,2.0,2.7435897435897436,364.4859813084112,-7.358778625954198,1.0381679389312977,1.5877862595419847,-0.3493253373313343,-0.10794602698650674,0.2833583208395802,101.1768402366211,31.942620466236257,2024-09-20 14:49:17.485229568+02:00
1726836557504.7607,5.945652173913043,5.021739130434782,9.83695652173913,2.0,2.7435897435897436,364.4859813084112,-7.709923664122137,0.9312977099236641,1.618320610687023,-0.3538230884557721,-0.10344827586206896,0.29685157421289354,101.1768402366211,31.942620466236257,2024-09-20 14:49:17.504760832+02:00
1726836557524.292,5.978260869565217,5.065217391304348,9.869565217391305,2.0,2.7435897435897436,364.4859813084112,-7.465648854961832,0.5801526717557252,1.7709923664122136,-0.3493253373313343,-0.08545727136431784,0.2818590704647676,101.1740896240462,31.942620466236257,2024-09-20 14:49:17.524292096+02:00
1726836557543.8232,5.945652173913043,5.0978260869565215,9.847826086956522,2.0,2.742124542124542,364.680737376436,-7.648854961832061,0.7175572519083969,1.5114503816793892,-0.34332833583208394,-0.11244377811094453,0.28785607196401797,101.17133901407439,31.942620466236257,2024-09-20 14:49:17.543823360+02:00
1726836557563.3545,5.923913043478261,5.076086956521739,9.891304347826086,2.0,2.742124542124542,364.680737376436,-7.541984732824427,0.7633587786259541,1.83206106870229,-0.34632683658170915,-0.10794602698650674,0.2863568215892054,101.1768402366211,31.942620466236257,2024-09-20 14:49:17.563354368+02:00
1726836557582.8855,5.945652173913043,5.0978260869565215,9.869565217391305,2.0,2.742124542124542,364.680737376436,-7.236641221374046,0.7633587786259541,1.3740458015267174,-0.34632683658170915,-0.08995502248875561,0.28785607196401797,101.17959085179913,31.942620466236257,2024-09-20 14:49:17.582885376+02:00
1726836557602.417,5.945652173913043,5.065217391304348,9.858695652173912,2.0,2.742124542124542,364.680737376436,-7.572519083969465,0.8549618320610687,1.7251908396946565,-0.34782608695652173,-0.11544227886056971,0.29235382308845576,101.1740896240462,31.942620466236257,2024-09-20 14:49:17.602416896+02:00
1726836557621.9482,5.978260869565217,5.065217391304348,9.858695652173912,2.0,2.7406593406593407,364.8757016840417,-7.603053435114504,1.0076335877862594,1.8473282442748091,-0.3568215892053973,-0.10644677661169415,0.2848575712143928,101.17133901407439,31.942620466236257,2024-09-20 14:49:17.621948160+02:00
1726836557641.4795,5.967391304347826,5.0978260869565215,9.902173913043478,2.0,2.7406593406593407,364.8757016840417,-7.648854961832061,0.8549618320610687,1.7099236641221374,-0.34182908545727136,-0.10494752623688156,0.2848575712143928,101.1740896240462,31.942620466236257,2024-09-20 14:49:17.641479424+02:00
1726836557661.0107,5.913043478260869,5.0978260869565215,9.891304347826086,2.0,2.7406593406593407,364.8757016840417,-7.862595419847328,1.1450381679389312,1.648854961832061,-0.35082458770614694,-0.10494752623688156,0.29385307346326833,101.1740896240462,31.942620466236257,2024-09-20 14:49:17.661010688+02:00
1726836557680.542,5.934782608695652,5.076086956521739,9.858695652173912,2.0,2.7406593406593407,364.8757016840417,-7.526717557251908,0.8549618320610687,1.7557251908396947,-0.34782608695652173,-0.10794602698650674,0.2818590704647676,101.17959085179913,31.942620466236257,2024-09-20 14:49:17.680541952+02:00
1726836557700.0732,5.956521739130435,5.08695652173913,9.880434782608695,2.0,2.7391941391941392,365.0708745653918,-7.511450381679389,0.7175572519083969,1.5267175572519083,-0.34332833583208394,-0.10644677661169415,0.29235382308845576,101.1768402366211,31.942620466236257,2024-09-20 14:49:17.700073216+02:00
1726836557719.6045,5.945652173913043,5.08695652173913,9.847826086956522,2.0,2.7391941391941392,365.0708745653918,-7.221374045801526,0.8091603053435115,1.6030534351145038,-0.35082458770614694,-0.10494752623688156,0.2863568215892054,101.18234146958027,31.942620466236257,2024-09-20 14:49:17.719604480+02:00
1726836557739.1355,5.945652173913043,5.076086956521739,9.858695652173912,2.0,2.7377289377289373,365.2662563553653,-7.32824427480916,1.0687022900763359,1.5877862595419847,-0.3538230884557721,-0.11094452773613193,0.28785607196401797,101.18234146958027,31.942620466236257,2024-09-20 14:49:17.739135488+02:00
1726836557758.667,5.956521739130435,5.08695652173913,9.880434782608695,2.0,2.7391941391941392,365.0708745653918,-7.374045801526718,1.099236641221374,1.7709923664122136,-0.34182908545727136,-0.11094452773613193,0.29235382308845576,101.1768402366211,31.942620466236257,2024-09-20 14:49:17.758667008+02:00
1726836557778.1982,5.923913043478261,5.054347826086956,9.858695652173912,2.0,2.7377289377289373,365.2662563553653,-7.49618320610687,0.6106870229007634,1.7557251908396947,-0.3448275862068965,-0.10944527736131934,0.29235382308845576,101.1740896240462,31.942620466236257,2024-09-20 14:49:17.778198272+02:00
1726836557797.7295,5.956521739130435,5.065217391304348,9.858695652173912,2.0,2.7377289377289373,365.2662563553653,-7.267175572519084,0.9618320610687022,1.618320610687023,-0.34782608695652173,-0.0914542728635682,0.29535232383808097,101.17959085179913,31.942620466236257,2024-09-20 14:49:17.797729536+02:00
1726836557817.2607,5.923913043478261,5.08695652173913,9.847826086956522,2.0,2.7377289377289373,365.2662563553653,-7.206106870229007,0.7480916030534351,1.7557251908396947,-0.35532233883058467,-0.10194902548725637,0.28785607196401797,101.1768402366211,31.942620466236257,2024-09-20 14:49:17.817260800+02:00
1726836557836.792,5.9021739130434785,5.0978260869565215,9.826086956521738,2.0,2.7362637362637363,365.4618473895582,-7.374045801526718,1.099236641221374,1.7709923664122136,-0.3523238380809595,-0.10944527736131934,0.28785607196401797,101.1740896240462,31.942620466236257,2024-09-20 14:49:17.836792064+02:00
1726836557856.3232,5.923913043478261,5.076086956521739,9.891304347826086,2.0,2.7362637362637363,365.4618473895582,-7.7251908396946565,1.2519083969465647,1.66412213740458,-0.35532233883058467,-0.10644677661169415,0.2863568215892054,101.17959085179913,31.942620466236257,2024-09-20 14:49:17.856323328+02:00
1726836557875.8545,5.956521739130435,5.08695652173913,9.880434782608695,2.0,2.7362637362637363,365.4618473895582,-7.190839694656488,0.8549618320610687,1.6946564885496183,-0.3523238380809595,-0.10494752623688156,0.29235382308845576,101.17959085179913,31.942620466236257,2024-09-20 14:49:17.875854592+02:00
1726836557895.3855,5.934782608695652,5.076086956521739,9.847826086956522,2.0,2.7362637362637363,365.4618473895582,-7.49618320610687,1.129770992366412,1.66412213740458,-0.3493253373313343,-0.10794602698650674,0.2908545727136432,101.17959085179913,31.942620466236257,2024-09-20 14:49:17.895385600+02:00
1726836557914.917,5.923913043478261,5.054347826086956,9.83695652173913,2.0,2.734798534798535,365.6576480042861,-7.297709923664121,1.099236641221374,1.4351145038167938,-0.34632683658170915,-0.11094452773613193,0.29235382308845576,101.1740896240462,31.942620466236257,2024-09-20 14:49:17.914917120+02:00
1726836557934.4482,5.956521739130435,5.065217391304348,9.891304347826086,2.0,2.734798534798535,365.6576480042861,-7.511450381679389,0.9007633587786259,1.83206106870229,-0.34782608695652173,-0.0914542728635682,0.2863568215892054,101.1740896240462,31.942620466236257,2024-09-20 14:49:17.934448128+02:00
1726836557953.9795,5.934782608695652,5.076086956521739,9.858695652173912,2.0,2.7333333333333334,365.8536585365854,-7.312977099236641,0.9618320610687022,1.450381679389313,-0.3493253373313343,-0.10794602698650674,0.29385307346326833,101.1749419361926,31.94767639786005,2024-09-20 14:49:17.953979392+02:00
1726836557973.5107,5.923913043478261,5.065217391304348,9.83695652173913,2.0,2.7318681318681315,366.0498793242156,-7.49618320610687,0.7633587786259541,1.5114503816793892,-0.3538230884557721,-0.10494752623688156,0.2863568215892054,101.18319384871177,31.94767639786005,2024-09-20 14:49:17.973510656+02:00
1726836557993.042,5.956521739130435,5.065217391304348,9.91304347826087,2.0,2.7333333333333334,365.8536585365854,-7.6183206106870225,1.0229007633587786,1.6946564885496183,-0.34632683658170915,-0.09895052473763118,0.2908545727136432,101.17769257109585,31.94767639786005,2024-09-20 14:49:17.993041920+02:00
1726836558012.5732,5.913043478260869,5.119565217391304,9.858695652173912,2.0,2.7333333333333334,365.8536585365854,-7.221374045801526,0.8854961832061068,1.8473282442748091,-0.3448275862068965,-0.095952023988006,0.2908545727136432,101.17769257109585,31.94767639786005,2024-09-20 14:49:18.012573184+02:00
1726836558032.1045,5.9021739130434785,5.0978260869565215,9.847826086956522,2.0,2.7333333333333334,365.8536585365854,-7.419847328244274,0.8549618320610687,1.618320610687023,-0.3493253373313343,-0.10794602698650674,0.29535232383808097,101.17769257109585,31.94767639786005,2024-09-20 14:49:18.032104448+02:00
1726836558051.6355,5.934782608695652,5.065217391304348,9.858695652173912,2.0,2.7333333333333334,365.8536585365854,-7.206106870229007,0.732824427480916,1.3435114503816794,-0.34782608695652173,-0.11094452773613193,0.2893553223388306,101.1749419361926,31.94767639786005,2024-09-20 14:49:18.051635456+02:00
1726836558071.167,5.956521739130435,5.076086956521739,9.869565217391305,2.0,2.7318681318681315,366.0498793242156,-7.694656488549618,0.5038167938931297,1.7099236641221374,-0.34782608695652173,-0.10644677661169415,0.29235382308845576,101.18044320860224,31.94767639786005,2024-09-20 14:49:18.071166976+02:00
1726836558090.6982,5.945652173913043,5.0978260869565215,9.869565217391305,2.0,2.7318681318681315,366.0498793242156,-7.603053435114504,1.1755725190839694,1.618320610687023,-0.35082458770614694,-0.11094452773613193,0.2863568215892054,101.18044320860224,31.94767639786005,2024-09-20 14:49:18.090698240+02:00
1726836558110.2295,5.880434782608695,5.054347826086956,9.83695652173913,2.0,2.7318681318681315,366.0498793242156,-7.32824427480916,0.8702290076335878,1.6335877862595418,-0.34632683658170915,-0.08695652173913043,0.2863568215892054,101.18044320860224,31.94767639786005,2024-09-20 14:49:18.110229504+02:00
1726836558129.7607,5.978260869565217,5.076086956521739,9.902173913043478,2.0,2.7318681318681315,366.0498793242156,-7.007633587786259,0.5190839694656488,1.66412213740458,-0.3403298350824588,-0.0944527736131934,0.2893553223388306,101.1749419361926,31.94767639786005,2024-09-20 14:49:18.129760768+02:00
1726836558149.292,5.923913043478261,5.08695652173913,9.880434782608695,2.0,2.730402930402931,366.24631070566136,-7.7251908396946565,1.297709923664122,1.465648854961832,-0.35082458770614694,-0.095952023988006,0.2893553223388306,101.17769257109585,31.94767639786005,2024-09-20 14:49:18.149292032+02:00
1726836558168.8232,5.923913043478261,5.076086956521739,9.858695652173912,2.0,2.730402930402931,366.24631070566136,-7.32824427480916,1.0381679389312977,1.5114503816793892,-0.34782608695652173,-0.10344827586206896,0.29235382308845576,101.17769257109585,31.94767639786005,2024-09-20 14:49:18.168823296+02:00
1726836558188.3545,5.945652173913043,5.0978260869565215,9.847826086956522,2.0,2.730402930402931,366.24631070566136,-7.435114503816793,1.129770992366412,1.9541984732824427,-0.3448275862068965,-0.08395802098950525,0.2893553223388306,101.18594449142448,31.94767639786005,2024-09-20 14:49:18.188354560+02:00
1726836558207.8855,5.945652173913043,5.076086956521739,9.847826086956522,2.0,2.728937728937729,366.4429530201342,-7.587786259541985,1.0381679389312977,1.6030534351145038,-0.34632683658170915,-0.10944527736131934,0.2863568215892054,101.1749419361926,31.94767639786005,2024-09-20 14:49:18.207885568+02:00
1726836558227.417,5.934782608695652,5.08695652173913,9.858695652173912,2.0,2.728937728937729,366.4429530201342,-7.587786259541985,1.0076335877862594,1.3282442748091603,-0.34782608695652173,-0.11094452773613193,0.2863568215892054,101.17769257109585,31.94767639786005,2024-09-20 14:49:18.227417088+02:00
1726836558246.9482,5.913043478260869,5.08695652173913,9.869565217391305,2.0,2.728937728937729,366.4429530201342,-7.312977099236641,1.1908396946564885,1.3129770992366412,-0.3538230884557721,-0.10194902548725637,0.280359820089955,101.18319384871177,31.94767639786005,2024-09-20 14:49:18.246948352+02:00
1726836558266.4795,5.945652173913043,5.065217391304348,9.891304347826086,2.0,2.728937728937729,366.4429530201342,-7.2824427480916025,0.9465648854961831,1.6030534351145038,-0.34782608695652173,-0.10794602698650674,0.29235382308845576,101.18044320860224,31.94767639786005,2024-09-20 14:49:18.266479616+02:00
1726836558286.0107,5.934782608695652,5.065217391304348,9.83695652173913,2.0,2.7274725274725276,366.63980660757454,-7.465648854961832,0.9312977099236641,1.66412213740458,-0.3523238380809595,-0.10494752623688156,0.29535232383808097,101.17769257109585,31.94767639786005,2024-09-20 14:49:18.286010624+02:00
1726836558305.542,5.934782608695652,5.065217391304348,9.869565217391305,2.0,2.7274725274725276,366.63980660757454,-7.374045801526718,0.6870229007633587,1.5725190839694656,-0.3493253373313343,-0.095952023988006,0.2863568215892054,101.17769257109585,31.94767639786005,2024-09-20 14:49:18.305541888+02:00
1726836558325.0732,5.913043478260869,5.08695652173913,9.869565217391305,2.0,2.7274725274725276,366.63980660757454,-7.435114503816793,0.8854961832061068,1.4809160305343512,-0.3448275862068965,-0.09895052473763118,0.28785607196401797,101.18044320860224,31.94767639786005,2024-09-20 14:49:18.325073152+02:00
1726836558344.6045,5.891304347826087,5.076086956521739,9.858695652173912,2.0,2.7274725274725276,366.63980660757454,-7.709923664122137,1.2061068702290076,1.6030534351145038,-0.35532233883058467,-0.10944527736131934,0.29385307346326833,101.1749419361926,31.94767639786005,2024-09-20 14:49:18.344604416+02:00
1726836558364.1355,5.934782608695652,5.065217391304348,9.902173913043478,2.0,2.726007326007326,366.8368718086536,-7.526717557251908,0.9923664122137404,1.8015267175572518,-0.34632683658170915,-0.095952023988006,0.29535232383808097,101.17769257109585,31.94767639786005,2024-09-20 14:49:18.364135424+02:00
1726836558383.667,5.934782608695652,5.119565217391304,9.847826086956522,2.0,2.7274725274725276,366.63980660757454,-7.3893129770992365,0.5801526717557252,1.83206106870229,-0.34782608695652173,-0.09895052473763118,0.2908545727136432,101.18319384871177,31.94767639786005,2024-09-20 14:49:18.383666944+02:00
1726836558403.1982,5.934782608695652,5.08695652173913,9.858695652173912,2.0,2.726007326007326,366.8368718086536,-7.66412213740458,1.114503816793893,1.6030534351145038,-0.3448275862068965,-0.10944527736131934,0.29385307346326833,101.1749419361926,31.94767639786005,2024-09-20 14:49:18.403198208+02:00
1726836558422.7295,5.945652173913043,5.065217391304348,9.880434782608695,2.0,2.726007326007326,366.8368718086536,-7.480916030534351,0.732824427480916,1.5877862595419847,-0.34632683658170915,-0.10944527736131934,0.2833583208395802,101.17769257109585,31.94767639786005,2024-09-20 14:49:18.422729472+02:00
1726836558442.2607,5.923913043478261,5.119565217391304,9.847826086956522,2.0,2.7245421245421246,367.03414896477545,-7.770992366412213,0.5801526717557252,1.618320610687023,-0.35082458770614694,-0.10794602698650674,0.2908545727136432,101.17769257109585,31.94767639786005,2024-09-20 14:49:18.442260736+02:00
1726836558461.792,5.913043478260869,5.076086956521739,9.91304347826087,2.0,2.7245421245421246,367.03414896477545,-7.6183206106870225,1.0076335877862594,1.5725190839694656,-0.3448275862068965,-0.11094452773613193,0.2893553223388306,101.1749419361926,31.94767639786005,2024-09-20 14:49:18.461792+02:00
1726836558481.3232,5.923913043478261,5.08695652173913,9.880434782608695,2.0,2.7245421245421246,367.03414896477545,-7.511450381679389,0.4580152671755725,1.4961832061068703,-0.34782608695652173,-0.10494752623688156,0.28785607196401797,101.17769257109585,31.94767639786005,2024-09-20 14:49:18.481323264+02:00
1726836558500.8545,5.923913043478261,5.08695652173913,9.83695652173913,2.0,2.7230769230769236,367.23163841807906,-7.312977099236641,0.9007633587786259,1.4351145038167938,-0.35082458770614694,-0.10644677661169415,0.2863568215892054,101.1749419361926,31.94767639786005,2024-09-20 14:49:18.500854528+02:00
1726836558520.3855,5.934782608695652,5.065217391304348,9.869565217391305,2.0,2.7245421245421246,367.03414896477545,-7.49618320610687,0.7480916030534351,1.66412213740458,-0.3448275862068965,-0.09895052473763118,0.29385307346326833,101.17769257109585,31.94767639786005,2024-09-20 14:49:18.520385536+02:00
1726836558539.917,5.923913043478261,5.08695652173913,9.83695652173913,2.0,2.7216117216117217,367.4293405114401,-7.129770992366412,0.9465648854961831,1.648854961832061,-0.35532233883058467,-0.10794602698650674,0.2893553223388306,101.1749419361926,31.94767639786005,2024-09-20 14:49:18.539917056+02:00
1726836558559.4482,5.934782608695652,5.076086956521739,9.880434782608695,2.0,2.7216117216117217,367.4293405114401,-7.404580152671755,1.099236641221374,2.015267175572519,-0.34782608695652173,-0.11244377811094453,0.28785607196401797,101.17769257109585,31.94767639786005,2024-09-20 14:49:18.559448320+02:00
1726836558578.9795,5.923913043478261,5.0978260869565215,9.826086956521738,2.0,2.7216117216117217,367.4293405114401,-7.221374045801526,0.7786259541984732,1.816793893129771,-0.3448275862068965,-0.10644677661169415,0.2893553223388306,101.18044320860224,31.94767639786005,2024-09-20 14:49:18.578979584+02:00
1726836558598.5107,5.913043478260869,5.08695652173913,9.83695652173913,2.0,2.7216117216117217,367.4293405114401,-7.679389312977099,0.8854961832061068,1.83206106870229,-0.35082458770614694,-0.11544227886056971,0.29535232383808097,101.18319384871177,31.94767639786005,2024-09-20 14:49:18.598510848+02:00
1726836558618.042,5.956521739130435,5.076086956521739,9.880434782608695,2.0,2.7201465201465203,367.6272555884729,-7.694656488549618,0.8549618320610687,1.648854961832061,-0.3568215892053973,-0.10494752623688156,0.2788605697151424,101.18044320860224,31.94767639786005,2024-09-20 14:49:18.618042112+02:00
1726836558637.5732,5.913043478260869,5.08695652173913,9.869565217391305,2.0,2.7201465201465203,367.6272555884729,-7.587786259541985,1.1603053435114503,1.7099236641221374,-0.35082458770614694,-0.095952023988006,0.2833583208395802,101.17769257109585,31.94767639786005,2024-09-20 14:49:18.637573120+02:00
1726836558657.1045,5.913043478260869,5.065217391304348,9.880434782608695,2.0,2.718681318681319,367.82538399353274,-7.6183206106870225,0.7175572519083969,1.8931297709923662,-0.34632683658170915,-0.10044977511244378,0.29685157421289354,101.17769257109585,31.94767639786005,2024-09-20 14:49:18.657104384+02:00
1726836558676.6355,5.945652173913043,5.076086956521739,9.869565217391305,2.0,2.718681318681319,367.82538399353274,-7.557251908396946,0.9770992366412213,1.984732824427481,-0.35082458770614694,-0.10044977511244378,0.29385307346326833,101.17769257109585,31.94767639786005,2024-09-20 14:49:18.676635392+02:00
1726836558696.167,5.9021739130434785,5.08695652173913,9.858695652173912,2.0,2.718681318681319,367.82538399353274,-7.679389312977099,1.2366412213740459,1.6030534351145038,-0.35532233883058467,-0.10794602698650674,0.2848575712143928,101.17769257109585,31.94767639786005,2024-09-20 14:49:18.696166912+02:00
1726836558715.6982,5.913043478260869,5.08695652173913,9.858695652173912,2.0,2.7172161172161173,368.0237260717174,-7.877862595419847,1.1450381679389312,1.5725190839694656,-0.34782608695652173,-0.08095952023988005,0.2848575712143928,101.18044320860224,31.94767639786005,2024-09-20 14:49:18.715698176+02:00
1726836558735.2295,5.945652173913043,5.108695652173913,9.847826086956522,2.0,2.7172161172161173,368.0237260717174,-7.374045801526718,0.732824427480916,1.7404580152671756,-0.3448275862068965,-0.11244377811094453,0.29235382308845576,101.1749419361926,31.94767639786005,2024-09-20 14:49:18.735229440+02:00
1726836558754.7607,5.923913043478261,5.08695652173913,9.858695652173912,2.0,2.7172161172161173,368.0237260717174,-7.603053435114504,0.7786259541984732,1.7557251908396947,-0.33883058470764615,-0.11094452773613193,0.2833583208395802,101.18319384871177,31.94767639786005,2024-09-20 14:49:18.754760704+02:00
1726836558774.292,5.923913043478261,5.076086956521739,9.869565217391305,2.0,2.7172161172161173,368.0237260717174,-7.541984732824427,0.6106870229007634,1.83206106870229,-0.3538230884557721,-0.11094452773613193,0.28785607196401797,101.17769257109585,31.94767639786005,2024-09-20 14:49:18.774291968+02:00
1726836558793.8232,5.913043478260869,5.076086956521739,9.880434782608695,2.0,2.715750915750916,368.2222821688697,-7.419847328244274,0.6259541984732824,1.7099236641221374,-0.3448275862068965,-0.09895052473763118,0.2848575712143928,101.1749419361926,31.94767639786005,2024-09-20 14:49:18.793823232+02:00
1726836558813.3545,5.923913043478261,5.076086956521739,9.858695652173912,2.0,2.715750915750916,368.2222821688697,-7.435114503816793,0.9465648854961831,1.7099236641221374,-0.3523238380809595,-0.09895052473763118,0.2893553223388306,101.18044320860224,31.94767639786005,2024-09-20 14:49:18.813354496+02:00
1726836558832.8855,5.945652173913043,5.0978260869565215,9.880434782608695,2.0,2.715750915750916,368.2222821688697,-7.374045801526718,0.42748091603053434,1.8473282442748091,-0.3538230884557721,-0.10194902548725637,0.2833583208395802,101.17769257109585,31.94767639786005,2024-09-20 14:49:18.832885504+02:00
1726836558852.417,5.913043478260869,5.08695652173913,9.83695652173913,2.0,2.715750915750916,368.2222821688697,-7.862595419847328,0.549618320610687,1.618320610687023,-0.34332833583208394,-0.10344827586206896,0.2788605697151424,101.18319384871177,31.94767639786005,2024-09-20 14:49:18.852417024+02:00
1726836558871.9482,5.945652173913043,5.076086956521739,9.869565217391305,2.0,2.714285714285715,368.4210526315789,-7.435114503816793,0.6412213740458015,1.648854961832061,-0.34782608695652173,-0.08845577211394302,0.29685157421289354,101.17769257109585,31.94767639786005,2024-09-20 14:49:18.871948288+02:00
1726836558891.4795,5.934782608695652,5.065217391304348,9.880434782608695,2.0,2.714285714285715,368.4210526315789,-7.511450381679389,0.9312977099236641,1.3740458015267174,-0.3403298350824588,-0.10794602698650674,0.2848575712143928,101.17769257109585,31.94767639786005,2024-09-20 14:49:18.891479552+02:00
1726836558911.0107,5.923913043478261,5.032608695652174,9.847826086956522,2.0,2.712820512820513,368.62003780718334,-7.404580152671755,0.8091603053435115,1.4809160305343512,-0.34782608695652173,-0.11094452773613193,0.29385307346326833,101.1749419361926,31.94767639786005,2024-09-20 14:49:18.911010816+02:00
1726836558930.542,5.923913043478261,5.076086956521739,9.869565217391305,2.0,2.712820512820513,368.62003780718334,-7.32824427480916,1.0381679389312977,1.5877862595419847,-0.3523238380809595,-0.10494752623688156,0.2863568215892054,101.1721913038925,31.94767639786005,2024-09-20 14:49:18.930542080+02:00
1726836558950.0732,5.923913043478261,5.0978260869565215,9.847826086956522,2.0,2.712820512820513,368.62003780718334,-7.572519083969465,0.8396946564885496,1.6793893129770991,-0.33883058470764615,-0.11544227886056971,0.29385307346326833,101.1721913038925,31.94767639786005,2024-09-20 14:49:18.950073344+02:00
1726836558969.6045,5.923913043478261,5.076086956521739,9.880434782608695,2.0,2.712820512820513,368.62003780718334,-7.572519083969465,0.8549618320610687,1.5725190839694656,-0.3523238380809595,-0.10944527736131934,0.280359820089955,101.16944067419556,31.94767639786005,2024-09-20 14:49:18.969604608+02:00
1726836558989.1355,5.945652173913043,5.0978260869565215,9.891304347826086,2.0,2.712820512820513,368.62003780718334,-7.648854961832061,0.8091603053435115,1.6793893129770991,-0.35082458770614694,-0.09895052473763118,0.29235382308845576,101.1749419361926,31.94767639786005,2024-09-20 14:49:18.989135616+02:00
1726836559008.667,5.913043478260869,5.08695652173913,9.826086956521738,2.0,2.712820512820513,368.62003780718334,-7.587786259541985,0.6106870229007634,1.465648854961832,-0.3523238380809595,-0.0944527736131934,0.29235382308845576,101.18319384871177,31.94767639786005,2024-09-20 14:49:19.008666880+02:00
1726836559028.1982,5.934782608695652,5.065217391304348,9.869565217391305,2.0,2.7113553113553115,368.8192380437719,-7.3893129770992365,0.8854961832061068,1.3282442748091603,-0.3493253373313343,-0.10644677661169415,0.2818590704647676,101.18044320860224,31.94767639786005,2024-09-20 14:49:19.028198144+02:00
1726836559047.7295,5.956521739130435,5.076086956521739,9.858695652173912,2.0,2.7113553113553115,368.8192380437719,-7.343511450381679,0.5801526717557252,1.9236641221374045,-0.3493253373313343,-0.09745127436281859,0.2818590704647676,101.1749419361926,31.94767639786005,2024-09-20 14:49:19.047729408+02:00
1726836559067.2607,5.913043478260869,5.0978260869565215,9.83695652173913,2.0,2.7113553113553115,368.8192380437719,-7.511450381679389,1.3129770992366412,1.5419847328244274,-0.3448275862068965,-0.11094452773613193,0.2908545727136432,101.1721913038925,31.94767639786005,2024-09-20 14:49:19.067260672+02:00
1726836559086.792,5.956521739130435,5.054347826086956,9.891304347826086,2.0,2.7113553113553115,368.8192380437719,-7.511450381679389,0.9770992366412213,1.8625954198473282,-0.3448275862068965,-0.11394302848575712,0.3028485757121439,101.17769257109585,31.94767639786005,2024-09-20 14:49:19.086791936+02:00
1726836559106.3232,5.956521739130435,5.0978260869565215,9.847826086956522,2.0,2.7113553113553115,368.8192380437719,-7.068702290076335,0.5190839694656488,1.465648854961832,-0.34182908545727136,-0.10494752623688156,0.2863568215892054,101.17769257109585,31.94767639786005,2024-09-20 14:49:19.106323200+02:00
1726836559125.8545,5.869565217391304,5.08695652173913,9.83695652173913,2.0,2.7113553113553115,368.8192380437719,-7.7251908396946565,1.0381679389312977,1.4809160305343512,-0.3523238380809595,-0.1184407796101949,0.29535232383808097,101.18044320860224,31.94767639786005,2024-09-20 14:49:19.125854464+02:00
1726836559145.3855,6.0,5.054347826086956,9.902173913043478,2.0,2.70989010989011,369.0186536901865,-7.343511450381679,1.0076335877862594,1.984732824427481,-0.34782608695652173,-0.09895052473763118,0.29235382308845576,101.18044320860224,31.94767639786005,2024-09-20 14:49:19.145385472+02:00
1726836559164.917,5.880434782608695,5.119565217391304,9.869565217391305,2.0,2.70989010989011,369.0186536901865,-7.374045801526718,0.8854961832061068,1.6793893129770991,-0.3448275862068965,-0.10044977511244378,0.2848575712143928,101.17769257109585,31.94767639786005,2024-09-20 14:49:19.164916992+02:00
1726836559184.4482,5.934782608695652,5.065217391304348,9.847826086956522,2.0,2.70989010989011,369.0186536901865,-7.603053435114504,1.297709923664122,1.6793893129770991,-0.35082458770614694,-0.09745127436281859,0.2908545727136432,101.18044320860224,31.94767639786005,2024-09-20 14:49:19.184448256+02:00
1726836559203.9795,5.956521739130435,5.054347826086956,9.858695652173912,2.0,2.708424908424908,369.2182850960238,-7.175572519083969,0.8244274809160305,1.4045801526717556,-0.3523238380809595,-0.10344827586206896,0.2893553223388306,101.18319384871177,31.94767639786005,2024-09-20 14:49:19.203979520+02:00
1726836559223.5107,5.923913043478261,5.076086956521739,9.902173913043478,2.0,2.708424908424908,369.2182850960238,-7.450381679389313,0.7633587786259541,1.816793893129771,-0.3403298350824588,-0.10794602698650674,0.28785607196401797,101.17769257109585,31.94767639786005,2024-09-20 14:49:19.223510784+02:00
1726836559243.042,5.913043478260869,5.108695652173913,9.83695652173913,2.0,2.708424908424908,369.2182850960238,-7.374045801526718,0.8244274809160305,1.5114503816793892,-0.34332833583208394,-0.11394302848575712,0.2788605697151424,101.1749419361926,31.94767639786005,2024-09-20 14:49:19.243042048+02:00
1726836559262.5732,5.891304347826087,5.0978260869565215,9.869565217391305,2.0,2.708424908424908,369.2182850960238,-7.679389312977099,0.8091603053435115,1.6793893129770991,-0.35082458770614694,-0.11544227886056971,0.29235382308845576,101.1749419361926,31.94767639786005,2024-09-20 14:49:19.262573312+02:00
1726836559282.1045,5.978260869565217,5.076086956521739,9.858695652173912,2.0,2.708424908424908,369.2182850960238,-7.32824427480916,0.5801526717557252,1.7709923664122136,-0.3523238380809595,-0.10494752623688156,0.27586206896551724,101.1749419361926,31.94767639786005,2024-09-20 14:49:19.282104576+02:00
1726836559301.6355,5.945652173913043,5.108695652173913,9.869565217391305,2.0,2.708424908424908,369.2182850960238,-7.206106870229007,0.6259541984732824,1.83206106870229,-0.34332833583208394,-0.10494752623688156,0.2788605697151424,101.17769257109585,31.94767639786005,2024-09-20 14:49:19.301635584+02:00
1726836559321.167,5.923913043478261,5.054347826086956,9.83695652173913,2.0,2.7069597069597076,369.4181326116373,-7.541984732824427,0.8549618320610687,1.4809160305343512,-0.3448275862068965,-0.095952023988006,0.280359820089955,101.1749419361926,31.94767639786005,2024-09-20 14:49:19.321167104+02:00
1726836559340.6982,5.923913043478261,5.08695652173913,9.83695652173913,2.0,2.7069597069597076,369.4181326116373,-7.343511450381679,0.8549618320610687,1.465648854961832,-0.3523238380809595,-0.09295352323838081,0.2863568215892054,101.17769257109585,31.94767639786005,2024-09-20 14:49:19.340698368+02:00
1726836559360.2295,5.934782608695652,5.054347826086956,9.891304347826086,2.0,2.7069597069597076,369.4181326116373,-7.603053435114504,0.916030534351145,1.4961832061068703,-0.34332833583208394,-0.10344827586206896,0.2893553223388306,101.1749419361926,31.94767639786005,2024-09-20 14:49:19.360229376+02:00
1726836559379.7607,5.913043478260869,5.08695652173913,9.869565217391305,2.0,2.7069597069597076,369.4181326116373,-7.557251908396946,1.1603053435114503,1.618320610687023,-0.3373313343328336,-0.11244377811094453,0.2908545727136432,101.1721913038925,31.94767639786005,2024-09-20 14:49:19.379760640+02:00
1726836559399.292,5.956521739130435,5.0978260869565215,9.869565217391305,2.0,2.7069597069597076,369.4181326116373,-7.465648854961832,0.8549618320610687,1.465648854961832,-0.3538230884557721,-0.10944527736131934,0.2818590704647676,101.1721913038925,31.94767639786005,2024-09-20 14:49:19.399291904+02:00
1726836559418.8232,5.945652173913043,5.108695652173913,9.869565217391305,2.0,2.7069597069597076,369.4181326116373,-7.511450381679389,0.916030534351145,1.816793893129771,-0.35082458770614694,-0.0914542728635682,0.2863568215892054,101.17769257109585,31.94767639786005,2024-09-20 14:49:19.418823168+02:00
1726836559438.3545,5.934782608695652,5.076086956521739,9.880434782608695,2.0,2.7069597069597076,369.4181326116373,-7.603053435114504,0.8702290076335878,1.9389312977099236,-0.3538230884557721,-0.10794602698650674,0.2833583208395802,101.1749419361926,31.94767639786005,2024-09-20 14:49:19.438354432+02:00
1726836559457.8855,5.891304347826087,5.076086956521739,9.847826086956522,2.0,2.7069597069597076,369.4181326116373,-7.32824427480916,0.564885496183206,1.6793893129770991,-0.3493253373313343,-0.10794602698650674,0.2833583208395802,101.1749419361926,31.94767639786005,2024-09-20 14:49:19.457885440+02:00
1726836559477.417,5.923913043478261,5.0978260869565215,9.880434782608695,2.0,2.7054945054945057,369.6181965881397,-7.374045801526718,0.48854961832061067,1.8931297709923662,-0.3538230884557721,-0.10194902548725637,0.280359820089955,101.18319384871177,31.94767639786005,2024-09-20 14:49:19.477416960+02:00
1726836559496.9482,5.934782608695652,5.08695652173913,9.880434782608695,2.0,2.7054945054945057,369.6181965881397,-7.099236641221374,0.8091603053435115,1.5419847328244274,-0.34332833583208394,-0.10644677661169415,0.2908545727136432,101.1721913038925,31.94767639786005,2024-09-20 14:49:19.496948224+02:00
1726836559516.4795,5.934782608695652,5.065217391304348,9.83695652173913,2.0,2.7054945054945057,369.6181965881397,-7.450381679389313,0.6106870229007634,1.5572519083969465,-0.35082458770614694,-0.10044977511244378,0.2893553223388306,101.17769257109585,31.94767639786005,2024-09-20 14:49:19.516479488+02:00
1726836559536.0107,5.923913043478261,5.054347826086956,9.83695652173913,2.0,2.7054945054945057,369.6181965881397,-7.480916030534351,0.7633587786259541,1.450381679389313,-0.34632683658170915,-0.10344827586206896,0.2818590704647676,101.17769257109585,31.94767639786005,2024-09-20 14:49:19.536010752+02:00
1726836559555.542,5.945652173913043,5.065217391304348,9.880434782608695,2.0,2.7054945054945057,369.6181965881397,-7.2824427480916025,0.47328244274809156,1.8625954198473282,-0.3493253373313343,-0.09745127436281859,0.2893553223388306,101.1749419361926,31.94767639786005,2024-09-20 14:49:19.555542016+02:00
1726836559575.0732,5.9021739130434785,5.108695652173913,9.858695652173912,2.0,2.7040293040293046,369.81847737740446,-7.450381679389313,1.0687022900763359,1.66412213740458,-0.3448275862068965,-0.10344827586206896,0.2863568215892054,101.1749419361926,31.94767639786005,2024-09-20 14:49:19.575073280+02:00
1726836559594.6045,5.923913043478261,5.076086956521739,9.880434782608695,2.0,2.7040293040293046,369.81847737740446,-7.450381679389313,0.9007633587786259,1.5572519083969465,-0.3493253373313343,-0.11094452773613193,0.2818590704647676,101.18044320860224,31.94767639786005,2024-09-20 14:49:19.594604544+02:00
1726836559614.1355,5.956521739130435,5.0978260869565215,9.847826086956522,2.0,2.7040293040293046,369.81847737740446,-7.450381679389313,0.6717557251908397,1.9236641221374045,-0.3403298350824588,-0.10794602698650674,0.280359820089955,101.1721913038925,31.94767639786005,2024-09-20 14:49:19.614135552+02:00
1726836559633.667,5.923913043478261,5.076086956521739,9.826086956521738,2.0,2.7025641025641027,370.0189753320683,-7.450381679389313,0.8549618320610687,1.7099236641221374,-0.34782608695652173,-0.11244377811094453,0.28785607196401797,101.17769257109585,31.94767639786005,2024-09-20 14:49:19.633667072+02:00
1726836559653.1982,5.934782608695652,5.076086956521739,9.891304347826086,2.0,2.7025641025641027,370.0189753320683,-7.648854961832061,0.7938931297709924,1.66412213740458,-0.3403298350824588,-0.11544227886056971,0.29385307346326833,101.17769257109585,31.94767639786005,2024-09-20 14:49:19.653198336+02:00
1726836559672.7295,5.913043478260869,5.08695652173913,9.83695652173913,2.0,2.7025641025641027,370.0189753320683,-7.374045801526718,0.6259541984732824,2.015267175572519,-0.35082458770614694,-0.10644677661169415,0.2863568215892054,101.1749419361926,31.94767639786005,2024-09-20 14:49:19.672729600+02:00
1726836559692.2607,5.934782608695652,5.08695652173913,9.869565217391305,2.0,2.7010989010989013,370.21969080553293,-7.450381679389313,1.1450381679389312,1.5419847328244274,-0.34782608695652173,-0.10494752623688156,0.2893553223388306,101.16944067419556,31.94767639786005,2024-09-20 14:49:19.692260864+02:00
1726836559711.792,5.923913043478261,5.065217391304348,9.869565217391305,2.0,2.7010989010989013,370.21969080553293,-7.068702290076335,0.8396946564885496,1.648854961832061,-0.3568215892053973,-0.10494752623688156,0.29685157421289354,101.1749419361926,31.94767639786005,2024-09-20 14:49:19.711791872+02:00
1726836559731.3232,5.923913043478261,5.108695652173913,9.847826086956522,2.0,2.6996336996337,370.4206241519674,-7.526717557251908,0.8244274809160305,1.5114503816793892,-0.3448275862068965,-0.10044977511244378,0.2848575712143928,101.17769257109585,31.94767639786005,2024-09-20 14:49:19.731323136+02:00
1726836559750.8545,5.934782608695652,5.08695652173913,9.880434782608695,2.0,2.6996336996337,370.4206241519674,-7.541984732824427,1.0687022900763359,1.83206106870229,-0.3403298350824588,-0.11394302848575712,0.29235382308845576,101.18044320860224,31.94767639786005,2024-09-20 14:49:19.750854400+02:00
1726836559770.3855,5.923913043478261,5.076086956521739,9.869565217391305,2.0,2.7010989010989013,370.21969080553293,-7.450381679389313,0.916030534351145,1.297709923664122,-0.3523238380809595,-0.11094452773613193,0.28785607196401797,101.18319384871177,31.94767639786005,2024-09-20 14:49:19.770385408+02:00
1726836559789.917,5.923913043478261,5.065217391304348,9.858695652173912,2.0,2.6996336996337,370.4206241519674,-7.374045801526718,0.916030534351145,1.83206106870229,-0.34782608695652173,-0.10794602698650674,0.280359820089955,101.18044320860224,31.94767639786005,2024-09-20 14:49:19.789916928+02:00
1726836559809.4482,5.945652173913043,5.0978260869565215,9.847826086956522,2.0,2.6996336996337,370.4206241519674,-7.893129770992366,0.6717557251908397,1.7099236641221374,-0.35082458770614694,-0.1184407796101949,0.2833583208395802,101.18044320860224,31.94767639786005,2024-09-20 14:49:19.809448192+02:00
1726836559828.9795,5.945652173913043,5.08695652173913,9.83695652173913,2.0,2.6996336996337,370.4206241519674,-7.770992366412213,0.48854961832061067,1.6793893129770991,-0.34632683658170915,-0.095952023988006,0.2848575712143928,101.18319384871177,31.94767639786005,2024-09-20 14:49:19.828979456+02:00
1726836559848.5107,5.923913043478261,5.0978260869565215,9.869565217391305,2.0,2.6996336996337,370.4206241519674,-7.557251908396946,0.9618320610687022,1.9389312977099236,-0.34782608695652173,-0.0944527736131934,0.29235382308845576,101.18319384871177,31.94767639786005,2024-09-20 14:49:19.848510720+02:00
1726836559868.042,5.934782608695652,5.065217391304348,9.847826086956522,2.0,2.6981684981684984,370.62177572631003,-7.404580152671755,0.6106870229007634,1.66412213740458,-0.3493253373313343,-0.09745127436281859,0.2848575712143928,101.18044320860224,31.94767639786005,2024-09-20 14:49:19.868041984+02:00
1726836559887.5732,5.945652173913043,5.0978260869565215,9.869565217391305,2.0,2.6996336996337,370.4206241519674,-7.32824427480916,0.7480916030534351,1.66412213740458,-0.3538230884557721,-0.09745127436281859,0.29535232383808097,101.1749419361926,31.94767639786005,2024-09-20 14:49:19.887573248+02:00
1726836559907.1045,5.923913043478261,5.076086956521739,9.847826086956522,2.0,2.6981684981684984,370.62177572631003,-7.603053435114504,0.732824427480916,1.4045801526717556,-0.34632683658170915,-0.10344827586206896,0.2893553223388306,101.17769257109585,31.94767639786005,2024-09-20 14:49:19.907104512+02:00
1726836559926.6355,5.956521739130435,5.043478260869565,9.891304347826086,2.0,2.6981684981684984,370.62177572631003,-7.32824427480916,0.6717557251908397,1.4351145038167938,-0.3448275862068965,-0.11094452773613193,0.2893553223388306,101.17769257109585,31.94767639786005,2024-09-20 14:49:19.926635520+02:00
1726836559946.167,5.945652173913043,5.08695652173913,9.847826086956522,2.0,2.6981684981684984,370.62177572631003,-7.404580152671755,0.6564885496183206,1.5114503816793892,-0.35082458770614694,-0.08845577211394302,0.2908545727136432,101.17854490836032,31.952732329774882,2024-09-20 14:49:19.946167040+02:00
1726836559965.6982,5.9021739130434785,5.076086956521739,9.847826086956522,2.0,2.6981684981684984,370.62177572631003,-7.709923664122137,0.7175572519083969,1.2671755725190839,-0.34632683658170915,-0.11544227886056971,0.29385307346326833,101.17304359650028,31.952732329774882,2024-09-20 14:49:19.965698304+02:00
1726836559985.2295,5.945652173913043,5.076086956521739,9.880434782608695,2.0,2.6981684981684984,370.62177572631003,-7.572519083969465,0.5190839694656488,1.8015267175572518,-0.34632683658170915,-0.11244377811094453,0.2893553223388306,101.18129556819513,31.952732329774882,2024-09-20 14:49:19.985229568+02:00
1726836560004.7607,5.967391304347826,5.0978260869565215,9.858695652173912,2.0,2.696703296703297,370.82314588427056,-7.893129770992366,0.2595419847328244,1.7404580152671756,-0.35082458770614694,-0.09295352323838081,0.2818590704647676,101.17854490836032,31.952732329774882,2024-09-20 14:49:20.004760832+02:00
1726836560024.292,5.945652173913043,5.076086956521739,9.880434782608695,2.0,2.696703296703297,370.82314588427056,-7.312977099236641,1.0076335877862594,1.66412213740458,-0.34332833583208394,-0.10494752623688156,0.2848575712143928,101.17304359650028,31.952732329774882,2024-09-20 14:49:20.024292096+02:00
1726836560043.8232,5.913043478260869,5.08695652173913,9.869565217391305,2.0,2.696703296703297,370.82314588427056,-7.267175572519084,1.083969465648855,1.4351145038167938,-0.34632683658170915,-0.10494752623688156,0.29235382308845576,101.17854490836032,31.952732329774882,2024-09-20 14:49:20.043823360+02:00
1726836560063.3545,5.934782608695652,5.0978260869565215,9.858695652173912,2.0,2.696703296703297,370.82314588427056,-7.49618320610687,0.8549618320610687,1.66412213740458,-0.3523238380809595,-0.10494752623688156,0.2818590704647676,101.17304359650028,31.952732329774882,2024-09-20 14:49:20.063354368+02:00
1726836560082.8855,5.945652173913043,5.076086956521739,9.858695652173912,2.0,2.6952380952380954,371.0247349823321,-7.175572519083969,0.9465648854961831,1.7862595419847327,-0.34332833583208394,-0.11394302848575712,0.2848575712143928,101.1757942511287,31.952732329774882,2024-09-20 14:49:20.082885376+02:00
1726836560102.417,5.945652173913043,5.08695652173913,9.869565217391305,2.0,2.696703296703297,370.82314588427056,-7.7251908396946565,0.9007633587786259,1.7251908396946565,-0.34182908545727136,-0.11394302848575712,0.2833583208395802,101.18404623063313,31.952732329774882,2024-09-20 14:49:20.102416896+02:00
1726836560121.9482,5.945652173913043,5.076086956521739,9.869565217391305,2.0,2.6952380952380954,371.0247349823321,-7.435114503816793,0.7633587786259541,1.9389312977099236,-0.3523238380809595,-0.11094452773613193,0.2818590704647676,101.1757942511287,31.952732329774882,2024-09-20 14:49:20.121948160+02:00
1726836560141.4795,5.934782608695652,5.119565217391304,9.858695652173912,2.0,2.6952380952380954,371.0247349823321,-7.2824427480916025,0.9465648854961831,1.8015267175572518,-0.35082458770614694,-0.10194902548725637,0.2908545727136432,101.1757942511287,31.952732329774882,2024-09-20 14:49:20.141479424+02:00
1726836560161.0107,5.9021739130434785,5.076086956521739,9.869565217391305,2.0,2.6952380952380954,371.0247349823321,-7.511450381679389,0.7633587786259541,1.5725190839694656,-0.34632683658170915,-0.11094452773613193,0.2908545727136432,101.18129556819513,31.952732329774882,2024-09-20 14:49:20.161010688+02:00
1726836560180.542,5.934782608695652,5.08695652173913,9.858695652173912,2.0,2.6952380952380954,371.0247349823321,-7.3893129770992365,0.8854961832061068,1.9083969465648853,-0.3493253373313343,-0.10794602698650674,0.2908545727136432,101.1757942511287,31.952732329774882,2024-09-20 14:49:20.180541952+02:00
1726836560200.0732,5.923913043478261,5.0978260869565215,9.847826086956522,2.0,2.6952380952380954,371.0247349823321,-7.435114503816793,0.5190839694656488,1.7557251908396947,-0.34632683658170915,-0.10494752623688156,0.28785607196401797,101.17854490836032,31.952732329774882,2024-09-20 14:49:20.200073216+02:00
1726836560219.6045,5.891304347826087,5.065217391304348,9.869565217391305,2.0,2.693772893772894,371.22654337775356,-7.740458015267175,0.7480916030534351,1.618320610687023,-0.34632683658170915,-0.10044977511244378,0.2848575712143928,101.17854490836032,31.952732329774882,2024-09-20 14:49:20.219604480+02:00
1726836560239.1355,5.934782608695652,5.08695652173913,9.869565217391305,2.0,2.693772893772894,371.22654337775356,-7.603053435114504,0.916030534351145,1.7862595419847327,-0.3493253373313343,-0.10344827586206896,0.29235382308845576,101.17854490836032,31.952732329774882,2024-09-20 14:49:20.239135488+02:00
1726836560258.667,5.967391304347826,5.076086956521739,9.880434782608695,2.0,2.693772893772894,371.22654337775356,-7.374045801526718,1.3587786259541985,1.450381679389313,-0.3448275862068965,-0.10344827586206896,0.29235382308845576,101.1757942511287,31.952732329774882,2024-09-20 14:49:20.258667008+02:00
1726836560278.1982,5.923913043478261,5.0978260869565215,9.880434782608695,2.0,2.693772893772894,371.22654337775356,-7.32824427480916,0.8702290076335878,1.8015267175572518,-0.33883058470764615,-0.10794602698650674,0.2818590704647676,101.17854490836032,31.952732329774882,2024-09-20 14:49:20.278198272+02:00
1726836560297.7295,5.934782608695652,5.08695652173913,9.847826086956522,2.0,2.6923076923076925,371.4285714285714,-7.49618320610687,0.916030534351145,1.7862595419847327,-0.34332833583208394,-0.10344827586206896,0.29385307346326833,101.1757942511287,31.952732329774882,2024-09-20 14:49:20.297729536+02:00
1726836560317.2607,5.923913043478261,5.076086956521739,9.891304347826086,2.0,2.6923076923076925,371.4285714285714,-7.374045801526718,1.0381679389312977,1.984732824427481,-0.3448275862068965,-0.11394302848575712,0.2863568215892054,101.1757942511287,31.952732329774882,2024-09-20 14:49:20.317260800+02:00
1726836560336.792,5.978260869565217,5.08695652173913,9.869565217391305,2.0,2.693772893772894,371.22654337775356,-7.374045801526718,0.8854961832061068,1.5267175572519083,-0.34632683658170915,-0.10644677661169415,0.29385307346326833,101.17854490836032,31.952732329774882,2024-09-20 14:49:20.336792064+02:00
1726836560356.3232,5.923913043478261,5.119565217391304,9.847826086956522,2.0,2.6923076923076925,371.4285714285714,-7.374045801526718,0.7480916030534351,1.8015267175572518,-0.3523238380809595,-0.11094452773613193,0.2833583208395802,101.1757942511287,31.952732329774882,2024-09-20 14:49:20.356323328+02:00
1726836560375.8545,5.934782608695652,5.08695652173913,9.858695652173912,2.0,2.6923076923076925,371.4285714285714,-7.419847328244274,1.0534351145038168,1.5114503816793892,-0.3493253373313343,-0.10194902548725637,0.29535232383808097,101.1757942511287,31.952732329774882,2024-09-20 14:49:20.375854592+02:00
1726836560395.3855,5.934782608695652,5.076086956521739,9.880434782608695,2.0,2.6923076923076925,371.4285714285714,-7.66412213740458,0.7175572519083969,1.465648854961832,-0.34782608695652173,-0.10794602698650674,0.2908545727136432,101.17029294447504,31.952732329774882,2024-09-20 14:49:20.395385600+02:00
1726836560414.917,5.956521739130435,5.076086956521739,9.891304347826086,2.0,2.6923076923076925,371.4285714285714,-7.236641221374046,0.9770992366412213,1.4198473282442747,-0.3523238380809595,-0.10794602698650674,0.2893553223388306,101.17029294447504,31.952732329774882,2024-09-20 14:49:20.414917120+02:00
1726836560434.4482,5.934782608695652,5.119565217391304,9.858695652173912,2.0,2.6893772893772896,371.83328793244345,-7.2824427480916025,0.9007633587786259,1.7557251908396947,-0.35082458770614694,-0.1199400299850075,0.29385307346326833,101.18129556819513,31.952732329774882,2024-09-20 14:49:20.434448128+02:00
1726836560453.9795,5.9021739130434785,5.065217391304348,9.83695652173913,2.0,2.6908424908424915,371.6308194936019,-7.419847328244274,0.8091603053435115,1.4961832061068703,-0.3523238380809595,-0.11544227886056971,0.2863568215892054,101.17854490836032,31.952732329774882,2024-09-20 14:49:20.453979392+02:00
1726836560473.5107,5.945652173913043,5.0978260869565215,9.869565217391305,2.0,2.6923076923076925,371.4285714285714,-7.435114503816793,0.7938931297709924,1.648854961832061,-0.34182908545727136,-0.1169415292353823,0.28785607196401797,101.18129556819513,31.952732329774882,2024-09-20 14:49:20.473510656+02:00
1726836560493.042,5.891304347826087,5.076086956521739,9.858695652173912,2.0,2.6908424908424915,371.6308194936019,-7.633587786259541,0.4580152671755725,1.5267175572519083,-0.3403298350824588,-0.11094452773613193,0.2908545727136432,101.1757942511287,31.952732329774882,2024-09-20 14:49:20.493041920+02:00
1726836560512.5732,5.923913043478261,5.108695652173913,9.880434782608695,2.0,2.6908424908424915,371.6308194936019,-7.587786259541985,0.366412213740458,2.0610687022900764,-0.34182908545727136,-0.08995502248875561,0.2848575712143928,101.17854490836032,31.952732329774882,2024-09-20 14:49:20.512573184+02:00
1726836560532.1045,5.956521739130435,5.076086956521739,9.891304347826086,2.0,2.6908424908424915,371.6308194936019,-7.49618320610687,0.3053435114503817,1.4351145038167938,-0.3403298350824588,-0.09895052473763118,0.2893553223388306,101.17304359650028,31.952732329774882,2024-09-20 14:49:20.532104448+02:00
1726836560551.6355,5.956521739130435,5.08695652173913,9.858695652173912,2.0,2.6923076923076925,371.4285714285714,-7.450381679389313,0.47328244274809156,1.5877862595419847,-0.3568215892053973,-0.09895052473763118,0.2908545727136432,101.18129556819513,31.952732329774882,2024-09-20 14:49:20.551635456+02:00
1726836560571.167,5.923913043478261,5.043478260869565,9.83695652173913,2.0,2.6923076923076925,371.4285714285714,-7.526717557251908,0.8396946564885496,1.2213740458015268,-0.34332833583208394,-0.08995502248875561,0.2908545727136432,101.18129556819513,31.952732329774882,2024-09-20 14:49:20.571166976+02:00
1726836560590.6982,5.967391304347826,5.054347826086956,9.83695652173913,2.0,2.6923076923076925,371.4285714285714,-7.038167938931298,0.4427480916030534,1.5114503816793892,-0.3493253373313343,-0.09745127436281859,0.2818590704647676,101.1757942511287,31.952732329774882,2024-09-20 14:49:20.590698240+02:00
1726836560610.2295,5.934782608695652,5.08695652173913,9.869565217391305,2.0,2.6923076923076925,371.4285714285714,-7.175572519083969,0.3969465648854962,1.8625954198473282,-0.3523238380809595,-0.11394302848575712,0.2908545727136432,101.1757942511287,31.952732329774882,2024-09-20 14:49:20.610229504+02:00
1726836560629.7607,5.913043478260869,5.076086956521739,9.858695652173912,2.0,2.6923076923076925,371.4285714285714,-7.6183206106870225,0.7022900763358778,1.5725190839694656,-0.3523238380809595,-0.11094452773613193,0.2893553223388306,101.1757942511287,31.952732329774882,2024-09-20 14:49:20.629760768+02:00
1726836560649.292,5.967391304347826,5.065217391304348,9.869565217391305,2.0,2.6923076923076925,371.4285714285714,-7.206106870229007,0.916030534351145,1.7404580152671756,-0.3373313343328336,-0.11094452773613193,0.2848575712143928,101.1757942511287,31.952732329774882,2024-09-20 14:49:20.649292032+02:00
1726836560668.8232,5.967391304347826,5.065217391304348,9.858695652173912,2.0,2.6923076923076925,371.4285714285714,-7.404580152671755,0.8396946564885496,1.2213740458015268,-0.3493253373313343,-0.0914542728635682,0.28785607196401797,101.17304359650028,31.952732329774882,2024-09-20 14:49:20.668823296+02:00
1726836560688.3545,5.945652173913043,5.08695652173913,9.869565217391305,2.0,2.6923076923076925,371.4285714285714,-7.770992366412213,1.0076335877862594,1.9389312977099236,-0.34332833583208394,-0.10644677661169415,0.2893553223388306,101.1757942511287,31.952732329774882,2024-09-20 14:49:20.688354560+02:00
