Shimmer_8280_Timestamp_Unix_CAL,Shimmer_8280_Accel_LN_X_CAL,Shimmer_8280_Accel_LN_Y_CAL,Shimmer_8280_Accel_LN_Z_CAL,Shimmer_8280_GSR_Range_CAL,Shimmer_8280_GSR_Skin_Conductance_CAL,Shimmer_8280_GSR_Skin_Resistance_CAL,Shimmer_8280_Gyro_X_CAL,Shimmer_8280_Gyro_Y_CAL,Shimmer_8280_Gyro_Z_CAL,Shimmer_8280_Mag_X_CAL,Shimmer_8280_Mag_Y_CAL,Shimmer_8280_Mag_Z_CAL,Shimmer_8280_Pressure_BMP280_CAL,Shimmer_8280_Temperature_BMP280_CAL,adjusted_time
1726836317595.337,3.4782608695652173,3.1630434782608696,11.228260869565217,1.0,7.359191331316767,135.88449531737774,-7.603053435114504,1.1450381679389312,1.6030534351145038,-0.3088455772113943,-0.034482758620689655,0.17841079460269865,99.57081839780318,22.25598996282206,2024-09-20 14:45:17.595336960+02:00
1726836317614.8682,3.5,3.152173913043478,11.141304347826086,1.0,7.359191331316767,135.88449531737774,-7.129770992366412,0.47328244274809156,1.8931297709923662,-0.2983508245877061,-0.04047976011994003,0.1664167916041979,99.56811046416438,22.25598996282206,2024-09-20 14:45:17.614868224+02:00
1726836317634.3994,3.510869565217391,3.1739130434782608,11.195652173913043,0.0,2.132196162046906,469.0000000000005,-6.824427480916031,1.2061068702290076,2.16793893129771,-0.3028485757121439,-0.037481259370314844,0.17691154422788605,99.56811046416438,22.25598996282206,2024-09-20 14:45:17.634399488+02:00
1726836317653.931,3.510869565217391,3.108695652173913,11.130434782608695,0.0,2.132196162046906,469.0000000000005,-7.709923664122137,0.4427480916030534,2.0763358778625953,-0.29985007496251875,-0.035982008995502246,0.17091454272863568,99.56811046416438,22.25598996282206,2024-09-20 14:45:17.653931008+02:00
1726836317673.462,3.4239130434782608,3.1739130434782608,11.16304347826087,0.0,2.132196162046906,469.0000000000005,-7.206106870229007,0.8854961832061068,1.6335877862595418,-0.3028485757121439,-0.0239880059970015,0.17391304347826086,99.56269460446404,22.25598996282206,2024-09-20 14:45:17.673462016+02:00
1726836317692.9932,3.4782608695652173,3.108695652173913,11.152173913043478,0.0,2.132196162046906,469.0000000000005,-7.786259541984733,0.015267175572519083,1.83206106870229,-0.3043478260869565,-0.019490254872563718,0.18440779610194902,99.56811046416438,22.25598996282206,2024-09-20 14:45:17.692993280+02:00
1726836317712.5244,3.510869565217391,3.152173913043478,11.217391304347826,0.0,2.132196162046906,469.0000000000005,-7.022900763358779,0.0,2.1374045801526718,-0.31334332833583206,-0.026986506746626684,0.17691154422788605,99.56811046416438,22.25598996282206,2024-09-20 14:45:17.712524288+02:00
1726836317732.0557,3.5543478260869565,3.152173913043478,11.17391304347826,1.0,2.0956975660808417,477.1680876979293,-7.465648854961832,0.5954198473282443,1.7404580152671756,-0.3088455772113943,-0.010494752623688156,0.18440779610194902,99.56540253305133,22.25598996282206,2024-09-20 14:45:17.732055552+02:00
1726836317751.587,3.467391304347826,3.1630434782608696,11.152173913043478,1.0,2.0956975660808417,477.1680876979293,-6.961832061068702,0.9770992366412213,1.6335877862595418,-0.31334332833583206,-0.025487256371814093,0.17391304347826086,99.56269460446404,22.25598996282206,2024-09-20 14:45:17.751586816+02:00
1726836317771.1182,3.467391304347826,3.119565217391304,11.184782608695652,1.0,2.0956975660808417,477.1680876979293,-7.129770992366412,0.8549618320610687,1.8473282442748091,-0.2983508245877061,-0.035982008995502246,0.17391304347826086,99.56811046416438,22.25598996282206,2024-09-20 14:45:17.771118080+02:00
1726836317790.6494,3.467391304347826,3.152173913043478,11.141304347826086,1.0,2.0956975660808417,477.1680876979293,-7.267175572519084,0.015267175572519083,1.6946564885496183,-0.3073463268365817,-0.035982008995502246,0.17391304347826086,99.55998667840248,22.25598996282206,2024-09-20 14:45:17.790649344+02:00
1726836317810.181,3.5543478260869565,3.1630434782608696,11.16304347826087,1.0,2.0956975660808417,477.1680876979293,-7.312977099236641,0.16793893129770993,1.7862595419847327,-0.30134932533733133,-0.02848575712143928,0.17841079460269865,99.56540253305133,22.25598996282206,2024-09-20 14:45:17.810180864+02:00
1726836317829.712,3.532608695652174,3.1304347826086953,11.206521739130434,2.0,2.0930402930402936,477.7738886944347,-7.572519083969465,0.41221374045801523,2.1068702290076335,-0.2983508245877061,-0.020989505247376312,0.17991004497751123,99.55998667840248,22.25598996282206,2024-09-20 14:45:17.829711872+02:00
1726836317849.2432,3.4239130434782608,3.1304347826086953,11.152173913043478,2.0,2.0930402930402936,477.7738886944347,-7.435114503816793,1.0229007633587786,1.816793893129771,-0.3028485757121439,-0.02848575712143928,0.17391304347826086,99.56269460446404,22.25598996282206,2024-09-20 14:45:17.849243136+02:00
1726836317868.7744,3.510869565217391,3.1630434782608696,11.141304347826086,2.0,2.0930402930402936,477.7738886944347,-7.175572519083969,0.04580152671755725,1.4198473282442747,-0.3058470764617691,-0.020989505247376312,0.17691154422788605,99.56269460446404,22.25598996282206,2024-09-20 14:45:17.868774400+02:00
1726836317888.3057,3.510869565217391,3.108695652173913,11.184782608695652,2.0,2.0930402930402936,477.7738886944347,-7.587786259541985,0.24427480916030533,1.8778625954198473,-0.29985007496251875,-0.02848575712143928,0.17541229385307347,99.56811046416438,22.25598996282206,2024-09-20 14:45:17.888305664+02:00
1726836317907.837,3.510869565217391,3.2065217391304346,11.141304347826086,2.0,2.0930402930402936,477.7738886944347,-7.358778625954198,0.16793893129770993,1.450381679389313,-0.3073463268365817,-0.03298350824587706,0.17391304347826086,99.55998667840248,22.25598996282206,2024-09-20 14:45:17.907836928+02:00
1726836317927.3682,3.5217391304347827,3.141304347826087,11.184782608695652,2.0,2.0930402930402936,477.7738886944347,-7.633587786259541,0.42748091603053434,1.7862595419847327,-0.3043478260869565,-0.03298350824587706,0.17841079460269865,99.56811046416438,22.25598996282206,2024-09-20 14:45:17.927368192+02:00
1726836317946.8994,3.467391304347826,3.152173913043478,11.16304347826087,2.0,2.0915750915750917,478.10858143607703,-7.068702290076335,0.6106870229007634,1.7862595419847327,-0.3073463268365817,-0.02848575712143928,0.16941529235382308,99.56269460446404,22.25598996282206,2024-09-20 14:45:17.946899456+02:00
1726836317966.431,3.510869565217391,3.152173913043478,11.130434782608695,2.0,2.0930402930402936,477.7738886944347,-7.6183206106870225,0.2595419847328244,1.8931297709923662,-0.29985007496251875,-0.041979010494752625,0.1664167916041979,99.55998667840248,22.25598996282206,2024-09-20 14:45:17.966430976+02:00
1726836317985.962,3.5,3.1630434782608696,11.217391304347826,2.0,2.0930402930402936,477.7738886944347,-7.358778625954198,0.6106870229007634,1.7099236641221374,-0.3028485757121439,-0.03298350824587706,0.18140929535232383,99.56811046416438,22.25598996282206,2024-09-20 14:45:17.985961984+02:00
1726836318005.4932,3.5217391304347827,3.152173913043478,11.119565217391305,2.0,2.0930402930402936,477.7738886944347,-7.236641221374046,-0.04580152671755725,1.450381679389313,-0.3103448275862069,-0.02848575712143928,0.17541229385307347,99.55998667840248,22.25598996282206,2024-09-20 14:45:18.005493248+02:00
1726836318025.0244,3.5217391304347827,3.152173913043478,11.17391304347826,2.0,2.0915750915750917,478.10858143607703,-7.465648854961832,0.8549618320610687,1.9541984732824427,-0.3043478260869565,-0.025487256371814093,0.17391304347826086,99.56811046416438,22.25598996282206,2024-09-20 14:45:18.025024512+02:00
1726836318044.5557,3.532608695652174,3.152173913043478,11.16304347826087,2.0,2.0915750915750917,478.10858143607703,-7.3893129770992365,0.549618320610687,1.5725190839694656,-0.2983508245877061,-0.03298350824587706,0.17691154422788605,99.56811046416438,22.25598996282206,2024-09-20 14:45:18.044555776+02:00
1726836318064.087,3.510869565217391,3.141304347826087,11.152173913043478,2.0,2.0915750915750917,478.10858143607703,-7.3893129770992365,1.1450381679389312,1.7709923664122136,-0.30134932533733133,-0.029985007496251874,0.17091454272863568,99.55727875486667,22.25598996282206,2024-09-20 14:45:18.064087040+02:00
1726836318083.6182,3.4891304347826084,3.152173913043478,11.16304347826087,2.0,2.0901098901098907,478.4437434279705,-7.465648854961832,1.0381679389312977,2.015267175572519,-0.3043478260869565,-0.025487256371814093,0.18440779610194902,99.56811046416438,22.25598996282206,2024-09-20 14:45:18.083618048+02:00
1726836318103.1494,3.510869565217391,3.1630434782608696,11.17391304347826,2.0,2.0901098901098907,478.4437434279705,-7.633587786259541,0.5343511450381679,1.984732824427481,-0.3088455772113943,-0.04047976011994003,0.18140929535232383,99.56269460446404,22.25598996282206,2024-09-20 14:45:18.103149312+02:00
1726836318122.681,3.532608695652174,3.1304347826086953,11.119565217391305,2.0,2.0901098901098907,478.4437434279705,-7.770992366412213,0.6870229007633587,1.9541984732824427,-0.30134932533733133,-0.029985007496251874,0.17841079460269865,99.56269460446404,22.25598996282206,2024-09-20 14:45:18.122680832+02:00
1726836318142.212,3.543478260869565,3.1630434782608696,11.152173913043478,2.0,2.0901098901098907,478.4437434279705,-7.190839694656488,0.5190839694656488,1.5877862595419847,-0.3058470764617691,-0.02848575712143928,0.18140929535232383,99.56269460446404,22.25598996282206,2024-09-20 14:45:18.142211840+02:00
1726836318161.7432,3.5652173913043477,3.141304347826087,11.16304347826087,2.0,2.0901098901098907,478.4437434279705,-7.66412213740458,0.9312977099236641,1.66412213740458,-0.3088455772113943,-0.02848575712143928,0.17991004497751123,99.56269460446404,22.25598996282206,2024-09-20 14:45:18.161743104+02:00
1726836318181.2744,3.510869565217391,3.1630434782608696,11.16304347826087,2.0,2.0901098901098907,478.4437434279705,-7.145038167938931,1.4961832061068703,1.5267175572519083,-0.30134932533733133,-0.026986506746626684,0.18440779610194902,99.55727875486667,22.25598996282206,2024-09-20 14:45:18.181274368+02:00
1726836318200.8057,3.4782608695652173,3.1304347826086953,11.16304347826087,2.0,2.0901098901098907,478.4437434279705,-7.587786259541985,1.282442748091603,1.4809160305343512,-0.30134932533733133,-0.02848575712143928,0.17991004497751123,99.56269460446404,22.25598996282206,2024-09-20 14:45:18.200805632+02:00
1726836318220.337,3.510869565217391,3.141304347826087,11.184782608695652,2.0,2.0901098901098907,478.4437434279705,-7.480916030534351,1.297709923664122,1.7404580152671756,-0.29985007496251875,-0.019490254872563718,0.1829085457271364,99.56540253305133,22.25598996282206,2024-09-20 14:45:18.220336896+02:00
1726836318239.8682,3.4782608695652173,3.1630434782608696,11.130434782608695,2.0,2.0886446886446888,478.77937565766393,-7.404580152671755,1.2061068702290076,1.648854961832061,-0.3058470764617691,-0.03298350824587706,0.17991004497751123,99.56811046416438,22.25598996282206,2024-09-20 14:45:18.239868160+02:00
1726836318259.3994,3.543478260869565,3.1630434782608696,11.17391304347826,2.0,2.0886446886446888,478.77937565766393,-6.65648854961832,0.5954198473282443,1.2366412213740459,-0.3043478260869565,-0.035982008995502246,0.17241379310344826,99.56269460446404,22.25598996282206,2024-09-20 14:45:18.259399424+02:00
1726836318278.931,3.510869565217391,3.141304347826087,11.152173913043478,2.0,2.0886446886446888,478.77937565766393,-7.1603053435114505,0.7175572519083969,1.5725190839694656,-0.3043478260869565,-0.029985007496251874,0.1679160419790105,99.56269460446404,22.25598996282206,2024-09-20 14:45:18.278930944+02:00
1726836318298.462,3.4891304347826084,3.152173913043478,11.16304347826087,2.0,2.087179487179487,479.1154791154791,-7.450381679389313,0.8854961832061068,1.6793893129770991,-0.3028485757121439,-0.043478260869565216,0.17541229385307347,99.55727875486667,22.25598996282206,2024-09-20 14:45:18.298461952+02:00
1726836318317.9932,3.4239130434782608,3.152173913043478,11.16304347826087,2.0,2.087179487179487,479.1154791154791,-7.694656488549618,0.7480916030534351,1.816793893129771,-0.3028485757121439,-0.038980509745127435,0.17241379310344826,99.56540253305133,22.25598996282206,2024-09-20 14:45:18.317993216+02:00
1726836318337.5244,3.4456521739130435,3.1739130434782608,11.206521739130434,2.0,2.0886446886446888,478.77937565766393,-7.511450381679389,0.5801526717557252,1.8473282442748091,-0.3088455772113943,-0.031484257871064465,0.17391304347826086,99.56811046416438,22.25598996282206,2024-09-20 14:45:18.337524480+02:00
1726836318357.0557,3.532608695652174,3.152173913043478,11.130434782608695,2.0,2.087179487179487,479.1154791154791,-7.374045801526718,-0.33587786259541985,2.1526717557251906,-0.3058470764617691,-0.0239880059970015,0.17691154422788605,99.55998667840248,22.25598996282206,2024-09-20 14:45:18.357055744+02:00
1726836318376.587,3.5869565217391304,3.1630434782608696,11.184782608695652,2.0,2.087179487179487,479.1154791154791,-7.32824427480916,-0.8396946564885496,2.1526717557251906,-0.29235382308845576,-0.020989505247376312,0.17691154422788605,99.55998667840248,22.25598996282206,2024-09-20 14:45:18.376587008+02:00
1726836318396.1182,3.5652173913043477,3.152173913043478,11.184782608695652,2.0,2.087179487179487,479.1154791154791,-7.175572519083969,0.32061068702290074,2.015267175572519,-0.3028485757121439,-0.035982008995502246,0.17241379310344826,99.56811046416438,22.25598996282206,2024-09-20 14:45:18.396118272+02:00
1726836318415.6494,3.5,3.1956521739130435,11.119565217391305,2.0,2.087179487179487,479.1154791154791,-7.435114503816793,0.4427480916030534,1.4351145038167938,-0.29985007496251875,-0.034482758620689655,0.17841079460269865,99.56811046416438,22.25598996282206,2024-09-20 14:45:18.415649536+02:00
1726836318435.181,3.5217391304347827,3.141304347826087,11.206521739130434,2.0,2.087179487179487,479.1154791154791,-6.977099236641221,1.3282442748091603,1.984732824427481,-0.2983508245877061,-0.037481259370314844,0.17691154422788605,99.56540253305133,22.25598996282206,2024-09-20 14:45:18.435180800+02:00
1726836318454.712,3.5217391304347827,3.1956521739130435,11.119565217391305,2.0,2.085714285714286,479.4520547945205,-7.740458015267175,0.732824427480916,1.4351145038167938,-0.3058470764617691,-0.029985007496251874,0.18140929535232383,99.56269460446404,22.25598996282206,2024-09-20 14:45:18.454711808+02:00
1726836318474.2432,3.5869565217391304,3.152173913043478,11.152173913043478,2.0,2.085714285714286,479.4520547945205,-7.9541984732824424,1.099236641221374,2.045801526717557,-0.3028485757121439,-0.022488755622188904,0.17241379310344826,99.56269460446404,22.25598996282206,2024-09-20 14:45:18.474243072+02:00
1726836318493.7744,3.543478260869565,3.141304347826087,11.17391304347826,2.0,2.085714285714286,479.4520547945205,-7.435114503816793,1.282442748091603,1.2671755725190839,-0.3088455772113943,-0.02848575712143928,0.17241379310344826,99.57081839780318,22.25598996282206,2024-09-20 14:45:18.493774336+02:00
1726836318513.3057,3.4782608695652173,3.1739130434782608,11.16304347826087,2.0,2.085714285714286,479.4520547945205,-7.526717557251908,0.9465648854961831,1.3587786259541985,-0.3118440779610195,-0.022488755622188904,0.1679160419790105,101.19373021091813,31.91228488260531,2024-09-20 14:45:18.513305600+02:00
1726836318532.837,3.532608695652174,3.152173913043478,11.108695652173912,2.0,2.085714285714286,479.4520547945205,-7.404580152671755,0.9770992366412213,1.6946564885496183,-0.3028485757121439,-0.025487256371814093,0.17991004497751123,101.18822921466365,31.91228488260531,2024-09-20 14:45:18.532836864+02:00
1726836318552.3682,3.5217391304347827,3.152173913043478,11.195652173913043,2.0,2.085714285714286,479.4520547945205,-7.114503816793893,0.9465648854961831,1.66412213740458,-0.3043478260869565,-0.01649175412293853,0.17691154422788605,101.18822921466365,31.91228488260531,2024-09-20 14:45:18.552368128+02:00
1726836318571.8994,3.543478260869565,3.1739130434782608,11.130434782608695,2.0,2.0842490842490844,479.78910369068535,-7.297709923664121,0.5343511450381679,1.8931297709923662,-0.31634182908545727,-0.031484257871064465,0.1829085457271364,101.18272822882061,31.91228488260531,2024-09-20 14:45:18.571899392+02:00
1726836318591.431,3.467391304347826,3.1739130434782608,11.17391304347826,2.0,2.0842490842490844,479.78910369068535,-7.786259541984733,0.549618320610687,1.9541984732824427,-0.3058470764617691,-0.02848575712143928,0.1679160419790105,101.18822921466365,31.91228488260531,2024-09-20 14:45:18.591430912+02:00
1726836318610.962,3.4891304347826084,3.152173913043478,11.17391304347826,2.0,2.0842490842490844,479.78910369068535,-7.068702290076335,0.16793893129770993,1.7862595419847327,-0.3028485757121439,-0.04047976011994003,0.17541229385307347,101.18822921466365,31.91228488260531,2024-09-20 14:45:18.610961920+02:00
1726836318630.4932,3.510869565217391,3.152173913043478,11.152173913043478,2.0,2.0842490842490844,479.78910369068535,-7.572519083969465,0.0,1.9541984732824427,-0.29985007496251875,-0.037481259370314844,0.18140929535232383,101.18272822882061,31.91228488260531,2024-09-20 14:45:18.630493184+02:00
1726836318650.0244,3.543478260869565,3.184782608695652,11.16304347826087,2.0,2.082783882783883,480.1266268026732,-7.267175572519084,-0.07633587786259542,1.7862595419847327,-0.3043478260869565,-0.0239880059970015,0.17541229385307347,101.18272822882061,31.91228488260531,2024-09-20 14:45:18.650024448+02:00
1726836318669.5557,3.532608695652174,3.1630434782608696,11.141304347826086,2.0,2.0842490842490844,479.78910369068535,-7.374045801526718,0.2748091603053435,1.8778625954198473,-0.29535232383808097,-0.025487256371814093,0.17691154422788605,101.18547872044068,31.91228488260531,2024-09-20 14:45:18.669555712+02:00
1726836318689.087,3.5217391304347827,3.1739130434782608,11.152173913043478,2.0,2.0842490842490844,479.78910369068535,-6.99236641221374,0.6106870229007634,1.83206106870229,-0.3073463268365817,-0.026986506746626684,0.17241379310344826,101.18822921466365,31.91228488260531,2024-09-20 14:45:18.689086976+02:00
1726836318708.6182,3.543478260869565,3.141304347826087,11.130434782608695,2.0,2.0842490842490844,479.78910369068535,-7.633587786259541,0.7786259541984732,1.9541984732824427,-0.3118440779610195,-0.029985007496251874,0.17841079460269865,101.18822921466365,31.91228488260531,2024-09-20 14:45:18.708618240+02:00
1726836318728.1494,3.510869565217391,3.1739130434782608,11.130434782608695,2.0,2.0842490842490844,479.78910369068535,-7.2824427480916025,0.9770992366412213,1.3740458015267174,-0.29685157421289354,-0.026986506746626684,0.17691154422788605,101.18822921466365,31.91228488260531,2024-09-20 14:45:18.728149504+02:00
1726836318747.681,3.543478260869565,3.1630434782608696,11.17391304347826,2.0,2.0842490842490844,479.78910369068535,-7.374045801526718,0.48854961832061067,1.450381679389313,-0.3043478260869565,-0.037481259370314844,0.17991004497751123,101.18272822882061,31.91228488260531,2024-09-20 14:45:18.747681024+02:00
1726836318767.212,3.510869565217391,3.1956521739130435,11.141304347826086,2.0,2.0842490842490844,479.78910369068535,-7.2824427480916025,0.732824427480916,1.5267175572519083,-0.29685157421289354,-0.038980509745127435,0.17691154422788605,101.19097971148945,31.91228488260531,2024-09-20 14:45:18.767212032+02:00
1726836318786.7432,3.5543478260869565,3.1739130434782608,11.228260869565217,2.0,2.0842490842490844,479.78910369068535,-7.236641221374046,1.2213740458015268,1.465648854961832,-0.3073463268365817,-0.031484257871064465,0.17391304347826086,101.18822921466365,31.91228488260531,2024-09-20 14:45:18.786743040+02:00
1726836318806.2744,3.5543478260869565,3.1739130434782608,11.108695652173912,2.0,2.082783882783883,480.1266268026732,-7.7251908396946565,0.564885496183206,1.7404580152671756,-0.3088455772113943,-0.022488755622188904,0.17091454272863568,101.18272822882061,31.91228488260531,2024-09-20 14:45:18.806274304+02:00
1726836318825.8057,3.510869565217391,3.1630434782608696,11.239130434782608,2.0,2.082783882783883,480.1266268026732,-7.862595419847328,1.083969465648855,1.7404580152671756,-0.3028485757121439,-0.022488755622188904,0.17091454272863568,101.18272822882061,31.91228488260531,2024-09-20 14:45:18.825805568+02:00
1726836318845.337,3.510869565217391,3.1630434782608696,11.119565217391305,2.0,2.0842490842490844,479.78910369068535,-7.297709923664121,0.33587786259541985,1.4198473282442747,-0.3043478260869565,-0.0239880059970015,0.1829085457271364,101.18272822882061,31.91228488260531,2024-09-20 14:45:18.845336832+02:00
1726836318864.8682,3.543478260869565,3.1630434782608696,11.217391304347826,2.0,2.0842490842490844,479.78910369068535,-7.175572519083969,0.9770992366412213,2.030534351145038,-0.29985007496251875,-0.0239880059970015,0.18140929535232383,101.19373021091813,31.91228488260531,2024-09-20 14:45:18.864868096+02:00
1726836318884.3994,3.5652173913043477,3.1304347826086953,11.119565217391305,2.0,2.0842490842490844,479.78910369068535,-7.526717557251908,0.38167938931297707,1.5572519083969465,-0.3043478260869565,-0.026986506746626684,0.1679160419790105,101.18822921466365,31.91228488260531,2024-09-20 14:45:18.884399360+02:00
1726836318903.931,3.5,3.184782608695652,11.17391304347826,2.0,2.0842490842490844,479.78910369068535,-7.236641221374046,0.9007633587786259,1.3893129770992365,-0.3043478260869565,-0.031484257871064465,0.17091454272863568,101.18272822882061,31.91228488260531,2024-09-20 14:45:18.903930880+02:00
1726836318923.462,3.5652173913043477,3.152173913043478,11.184782608695652,2.0,2.0842490842490844,479.78910369068535,-7.862595419847328,0.7480916030534351,1.5725190839694656,-0.3073463268365817,-0.019490254872563718,0.17841079460269865,101.17997773980339,31.91228488260531,2024-09-20 14:45:18.923461888+02:00
1726836318942.9932,3.5217391304347827,3.1739130434782608,11.152173913043478,2.0,2.0842490842490844,479.78910369068535,-7.557251908396946,1.0076335877862594,1.816793893129771,-0.30134932533733133,-0.04047976011994003,0.18140929535232383,101.17997773980339,31.91228488260531,2024-09-20 14:45:18.942993152+02:00
1726836318962.5244,3.510869565217391,3.152173913043478,11.152173913043478,2.0,2.0842490842490844,479.78910369068535,-7.923664122137405,0.9007633587786259,1.7251908396946565,-0.29685157421289354,-0.035982008995502246,0.17541229385307347,101.18547872044068,31.91228488260531,2024-09-20 14:45:18.962524416+02:00
1726836318982.0557,3.5543478260869565,3.217391304347826,11.16304347826087,2.0,2.0842490842490844,479.78910369068535,-7.49618320610687,1.3129770992366412,1.618320610687023,-0.3028485757121439,-0.029985007496251874,0.17691154422788605,101.19097971148945,31.91228488260531,2024-09-20 14:45:18.982055680+02:00
1726836319001.587,3.543478260869565,3.152173913043478,11.130434782608695,2.0,2.0842490842490844,479.78910369068535,-8.106870229007633,1.2061068702290076,1.618320610687023,-0.3058470764617691,-0.02848575712143928,0.17991004497751123,101.18547872044068,31.91228488260531,2024-09-20 14:45:19.001586944+02:00
1726836319021.1182,3.510869565217391,3.184782608695652,11.16304347826087,2.0,2.0842490842490844,479.78910369068535,-7.419847328244274,1.282442748091603,1.8931297709923662,-0.2983508245877061,-0.02848575712143928,0.17241379310344826,101.18547872044068,31.91228488260531,2024-09-20 14:45:19.021118208+02:00
1726836319040.6494,3.532608695652174,3.141304347826087,11.152173913043478,2.0,2.085714285714286,479.4520547945205,-7.3893129770992365,0.8091603053435115,1.4198473282442747,-0.29985007496251875,-0.0239880059970015,0.17541229385307347,101.18272822882061,31.91228488260531,2024-09-20 14:45:19.040649472+02:00
1726836319060.181,3.543478260869565,3.1304347826086953,11.17391304347826,2.0,2.0842490842490844,479.78910369068535,-7.938931297709924,1.1755725190839694,1.9541984732824427,-0.30134932533733133,-0.029985007496251874,0.17541229385307347,101.18272822882061,31.91228488260531,2024-09-20 14:45:19.060180992+02:00
1726836319079.712,3.532608695652174,3.1739130434782608,11.119565217391305,2.0,2.0842490842490844,479.78910369068535,-7.32824427480916,1.1450381679389312,1.1450381679389312,-0.3028485757121439,-0.019490254872563718,0.17691154422788605,101.19373021091813,31.91228488260531,2024-09-20 14:45:19.079712+02:00
1726836319099.2432,3.543478260869565,3.1630434782608696,11.195652173913043,2.0,2.085714285714286,479.4520547945205,-7.587786259541985,1.3129770992366412,1.5725190839694656,-0.30134932533733133,-0.037481259370314844,0.17391304347826086,101.18547872044068,31.91228488260531,2024-09-20 14:45:19.099243264+02:00
1726836319118.7744,3.510869565217391,3.1739130434782608,11.152173913043478,2.0,2.085714285714286,479.4520547945205,-7.206106870229007,1.2671755725190839,1.2213740458015268,-0.3043478260869565,-0.031484257871064465,0.17391304347826086,101.19097971148945,31.91228488260531,2024-09-20 14:45:19.118774528+02:00
1726836319138.3057,3.532608695652174,3.1956521739130435,11.141304347826086,2.0,2.085714285714286,479.4520547945205,-7.32824427480916,1.1755725190839694,1.2519083969465647,-0.3043478260869565,-0.02848575712143928,0.17541229385307347,101.18547872044068,31.91228488260531,2024-09-20 14:45:19.138305792+02:00
1726836319157.837,3.532608695652174,3.119565217391304,11.195652173913043,2.0,2.085714285714286,479.4520547945205,-7.572519083969465,1.618320610687023,1.2519083969465647,-0.3073463268365817,-0.0239880059970015,0.17241379310344826,101.18547872044068,31.91228488260531,2024-09-20 14:45:19.157836800+02:00
1726836319177.3682,3.510869565217391,3.184782608695652,11.119565217391305,2.0,2.085714285714286,479.4520547945205,-7.038167938931298,1.3282442748091603,1.3129770992366412,-0.31784107946026985,-0.020989505247376312,0.17691154422788605,101.18547872044068,31.91228488260531,2024-09-20 14:45:19.177368064+02:00
1726836319196.8994,3.5543478260869565,3.1630434782608696,11.17391304347826,2.0,2.085714285714286,479.4520547945205,-7.374045801526718,1.6793893129770991,1.83206106870229,-0.3028485757121439,-0.029985007496251874,0.1664167916041979,101.18547872044068,31.91228488260531,2024-09-20 14:45:19.196899328+02:00
1726836319216.431,3.4782608695652173,3.1630434782608696,11.108695652173912,2.0,2.085714285714286,479.4520547945205,-7.66412213740458,1.5419847328244274,1.9083969465648853,-0.3073463268365817,-0.03298350824587706,0.17241379310344826,101.17722725338902,31.91228488260531,2024-09-20 14:45:19.216430848+02:00
1726836319235.962,3.4891304347826084,3.1630434782608696,11.184782608695652,2.0,2.085714285714286,479.4520547945205,-7.801526717557252,1.4198473282442747,1.7709923664122136,-0.3028485757121439,-0.038980509745127435,0.17091454272863568,101.18272822882061,31.91228488260531,2024-09-20 14:45:19.235961856+02:00
1726836319255.4932,3.434782608695652,3.141304347826087,11.16304347826087,2.0,2.085714285714286,479.4520547945205,-8.0,1.3893129770992365,1.984732824427481,-0.29685157421289354,-0.029985007496251874,0.17241379310344826,101.18272822882061,31.91228488260531,2024-09-20 14:45:19.255493120+02:00
1726836319275.0244,3.4456521739130435,3.184782608695652,11.141304347826086,2.0,2.085714285714286,479.4520547945205,-7.068702290076335,0.5954198473282443,1.66412213740458,-0.30134932533733133,-0.034482758620689655,0.1679160419790105,101.18822921466365,31.91228488260531,2024-09-20 14:45:19.275024384+02:00
1726836319294.5557,3.5869565217391304,3.141304347826087,11.17391304347826,2.0,2.085714285714286,479.4520547945205,-7.480916030534351,0.41221374045801523,1.9389312977099236,-0.29985007496251875,-0.03298350824587706,0.17391304347826086,101.18547872044068,31.91228488260531,2024-09-20 14:45:19.294555648+02:00
1726836319314.087,3.543478260869565,3.184782608695652,11.141304347826086,2.0,2.085714285714286,479.4520547945205,-7.450381679389313,0.4427480916030534,1.7099236641221374,-0.3058470764617691,-0.0239880059970015,0.17541229385307347,101.17997773980339,31.91228488260531,2024-09-20 14:45:19.314086912+02:00
1726836319333.6182,3.5652173913043477,3.141304347826087,11.228260869565217,2.0,2.085714285714286,479.4520547945205,-7.358778625954198,1.0534351145038168,1.7557251908396947,-0.29985007496251875,-0.026986506746626684,0.17841079460269865,101.17997773980339,31.91228488260531,2024-09-20 14:45:19.333618176+02:00
1726836319353.1494,3.4565217391304346,3.1739130434782608,11.184782608695652,2.0,2.0842490842490844,479.78910369068535,-7.694656488549618,1.66412213740458,1.282442748091603,-0.3028485757121439,-0.017991004497751123,0.1664167916041979,101.18272822882061,31.91228488260531,2024-09-20 14:45:19.353149440+02:00
1726836319372.681,3.4782608695652173,3.1739130434782608,11.130434782608695,2.0,2.085714285714286,479.4520547945205,-7.816793893129771,1.282442748091603,1.7709923664122136,-0.3058470764617691,-0.026986506746626684,0.17391304347826086,101.18547872044068,31.91228488260531,2024-09-20 14:45:19.372680960+02:00
1726836319392.212,3.543478260869565,3.141304347826087,11.152173913043478,2.0,2.085714285714286,479.4520547945205,-8.015267175572518,1.5267175572519083,1.8473282442748091,-0.3073463268365817,-0.03298350824587706,0.1664167916041979,101.18272822882061,31.91228488260531,2024-09-20 14:45:19.392211968+02:00
1726836319411.7432,3.5,3.1739130434782608,11.184782608695652,2.0,2.0842490842490844,479.78910369068535,-7.557251908396946,1.4045801526717556,1.5877862595419847,-0.3043478260869565,-0.035982008995502246,0.18440779610194902,101.18547872044068,31.91228488260531,2024-09-20 14:45:19.411743232+02:00
1726836319431.2744,3.532608695652174,3.152173913043478,11.217391304347826,2.0,2.085714285714286,479.4520547945205,-7.862595419847328,1.083969465648855,1.8625954198473282,-0.3073463268365817,-0.03298350824587706,0.16941529235382308,101.18272822882061,31.91228488260531,2024-09-20 14:45:19.431274496+02:00
1726836319450.8057,3.4239130434782608,3.1630434782608696,11.184782608695652,2.0,2.085714285714286,479.4520547945205,-7.221374045801526,1.5267175572519083,1.9541984732824427,-0.3028485757121439,-0.03298350824587706,0.1664167916041979,101.18547872044068,31.91228488260531,2024-09-20 14:45:19.450805760+02:00
1726836319470.337,3.510869565217391,3.1956521739130435,11.097826086956522,2.0,2.0842490842490844,479.78910369068535,-6.931297709923664,1.1603053435114503,1.648854961832061,-0.3028485757121439,-0.02848575712143928,0.18140929535232383,101.18547872044068,31.91228488260531,2024-09-20 14:45:19.470337024+02:00
1726836319489.8682,3.5,3.1304347826086953,11.152173913043478,2.0,2.0842490842490844,479.78910369068535,-7.679389312977099,1.3740458015267174,1.8473282442748091,-0.3073463268365817,-0.025487256371814093,0.17541229385307347,101.17997773980339,31.91228488260531,2024-09-20 14:45:19.489868288+02:00
1726836319509.3994,3.4891304347826084,3.1630434782608696,11.152173913043478,2.0,2.0842490842490844,479.78910369068535,-7.206106870229007,0.9465648854961831,1.2366412213740459,-0.3073463268365817,-0.029985007496251874,0.17241379310344826,101.18083012451967,31.91734081248287,2024-09-20 14:45:19.509399296+02:00
1726836319528.931,3.510869565217391,3.141304347826087,11.141304347826086,2.0,2.0842490842490844,479.78910369068535,-7.633587786259541,0.5038167938931297,1.8473282442748091,-0.30134932533733133,-0.029985007496251874,0.17991004497751123,101.18358063586516,31.91734081248287,2024-09-20 14:45:19.528930816+02:00
1726836319548.462,3.5,3.1304347826086953,11.206521739130434,2.0,2.0842490842490844,479.78910369068535,-8.015267175572518,0.6870229007633587,1.984732824427481,-0.3148425787106447,-0.026986506746626684,0.17091454272863568,101.18358063586516,31.91734081248287,2024-09-20 14:45:19.548461824+02:00
1726836319567.9932,3.510869565217391,3.141304347826087,11.17391304347826,2.0,2.0842490842490844,479.78910369068535,-7.404580152671755,1.0229007633587786,1.618320610687023,-0.29985007496251875,-0.034482758620689655,0.17841079460269865,101.18633114981353,31.91734081248287,2024-09-20 14:45:19.567993088+02:00
1726836319587.5244,3.467391304347826,3.152173913043478,11.152173913043478,2.0,2.0842490842490844,479.78910369068535,-7.374045801526718,0.5801526717557252,1.648854961832061,-0.29685157421289354,-0.041979010494752625,0.16941529235382308,101.18083012451967,31.91734081248287,2024-09-20 14:45:19.587524352+02:00
1726836319607.0557,3.5,3.141304347826087,11.195652173913043,2.0,2.0842490842490844,479.78910369068535,-7.221374045801526,0.38167938931297707,1.7404580152671756,-0.30134932533733133,-0.035982008995502246,0.17241379310344826,101.18083012451967,31.91734081248287,2024-09-20 14:45:19.607055616+02:00
1726836319626.587,3.543478260869565,3.141304347826087,11.16304347826087,2.0,2.0842490842490844,479.78910369068535,-7.251908396946565,0.0916030534351145,1.8625954198473282,-0.3028485757121439,-0.020989505247376312,0.17541229385307347,101.18908166636481,31.91734081248287,2024-09-20 14:45:19.626586880+02:00
1726836319646.1182,3.532608695652174,3.141304347826087,11.184782608695652,2.0,2.0842490842490844,479.78910369068535,-7.435114503816793,0.42748091603053434,1.8015267175572518,-0.3043478260869565,-0.020989505247376312,0.17091454272863568,101.18358063586516,31.91734081248287,2024-09-20 14:45:19.646118144+02:00
1726836319665.6494,3.4782608695652173,3.141304347826087,11.076086956521738,2.0,2.0842490842490844,479.78910369068535,-7.297709923664121,0.7022900763358778,1.3129770992366412,-0.3058470764617691,-0.029985007496251874,0.17991004497751123,101.18358063586516,31.91734081248287,2024-09-20 14:45:19.665649408+02:00
1726836319685.181,3.510869565217391,3.1739130434782608,11.206521739130434,2.0,2.0842490842490844,479.78910369068535,-7.465648854961832,-0.2748091603053435,1.7251908396946565,-0.30134932533733133,-0.029985007496251874,0.17991004497751123,101.18908166636481,31.91734081248287,2024-09-20 14:45:19.685180928+02:00
1726836319704.712,3.510869565217391,3.1739130434782608,11.130434782608695,2.0,2.082783882783883,480.1266268026732,-7.557251908396946,0.07633587786259542,1.7557251908396947,-0.3058470764617691,-0.025487256371814093,0.17691154422788605,101.18358063586516,31.91734081248287,2024-09-20 14:45:19.704711936+02:00
1726836319724.2432,3.510869565217391,3.152173913043478,11.152173913043478,2.0,2.0842490842490844,479.78910369068535,-6.961832061068702,0.16793893129770993,1.7709923664122136,-0.3088455772113943,-0.035982008995502246,0.1829085457271364,101.18908166636481,31.91734081248287,2024-09-20 14:45:19.724243200+02:00
1726836319743.7744,3.5217391304347827,3.1304347826086953,11.184782608695652,2.0,2.0842490842490844,479.78910369068535,-7.526717557251908,0.5190839694656488,1.8473282442748091,-0.2983508245877061,-0.014992503748125937,0.17691154422788605,101.18908166636481,31.91734081248287,2024-09-20 14:45:19.743774464+02:00
1726836319763.3057,3.532608695652174,3.1630434782608696,11.16304347826087,2.0,2.0842490842490844,479.78910369068535,-7.221374045801526,0.5343511450381679,1.6030534351145038,-0.30134932533733133,-0.034482758620689655,0.17241379310344826,101.18083012451967,31.91734081248287,2024-09-20 14:45:19.763305728+02:00
1726836319782.837,3.4891304347826084,3.152173913043478,11.17391304347826,2.0,2.0842490842490844,479.78910369068535,-7.572519083969465,0.6564885496183206,2.1068702290076335,-0.3073463268365817,-0.02848575712143928,0.17541229385307347,101.191832185519,31.91734081248287,2024-09-20 14:45:19.782836992+02:00
1726836319802.3682,3.532608695652174,3.184782608695652,11.152173913043478,2.0,2.0842490842490844,479.78910369068535,-7.312977099236641,0.21374045801526717,1.7404580152671756,-0.2983508245877061,-0.029985007496251874,0.17841079460269865,101.18633114981353,31.91734081248287,2024-09-20 14:45:19.802368256+02:00
1726836319821.8994,3.543478260869565,3.1304347826086953,11.141304347826086,2.0,2.0842490842490844,479.78910369068535,-7.221374045801526,0.5038167938931297,1.465648854961832,-0.3043478260869565,-0.017991004497751123,0.18140929535232383,101.18358063586516,31.91734081248287,2024-09-20 14:45:19.821899520+02:00
1726836319841.431,3.532608695652174,3.152173913043478,11.16304347826087,2.0,2.0842490842490844,479.78910369068535,-7.465648854961832,0.32061068702290074,2.16793893129771,-0.3028485757121439,-0.02848575712143928,0.17991004497751123,101.18083012451967,31.91734081248287,2024-09-20 14:45:19.841430784+02:00
1726836319860.962,3.5,3.152173913043478,11.17391304347826,2.0,2.0842490842490844,479.78910369068535,-7.236641221374046,0.24427480916030533,1.6793893129770991,-0.3028485757121439,-0.020989505247376312,0.17691154422788605,101.18908166636481,31.91734081248287,2024-09-20 14:45:19.860961792+02:00
1726836319880.4932,3.5,3.152173913043478,11.141304347826086,2.0,2.0842490842490844,479.78910369068535,-7.297709923664121,0.4427480916030534,2.2900763358778624,-0.3058470764617691,-0.022488755622188904,0.18140929535232383,101.18358063586516,31.91734081248287,2024-09-20 14:45:19.880493056+02:00
1726836319900.0244,3.5217391304347827,3.141304347826087,11.206521739130434,2.0,2.0842490842490844,479.78910369068535,-7.3893129770992365,1.1908396946564885,1.648854961832061,-0.3043478260869565,-0.034482758620689655,0.1829085457271364,101.18633114981353,31.91734081248287,2024-09-20 14:45:19.900024320+02:00
1726836319919.5557,3.532608695652174,3.1630434782608696,11.16304347826087,2.0,2.0842490842490844,479.78910369068535,-7.267175572519084,0.41221374045801523,1.6335877862595418,-0.30134932533733133,-0.020989505247376312,0.17541229385307347,101.18358063586516,31.91734081248287,2024-09-20 14:45:19.919555584+02:00
1726836319939.087,3.543478260869565,3.1630434782608696,11.217391304347826,2.0,2.0842490842490844,479.78910369068535,-7.32824427480916,0.9007633587786259,1.465648854961832,-0.3058470764617691,-0.04047976011994003,0.17391304347826086,101.18358063586516,31.91734081248287,2024-09-20 14:45:19.939086848+02:00
1726836319958.6182,3.510869565217391,3.152173913043478,11.119565217391305,2.0,2.0842490842490844,479.78910369068535,-7.221374045801526,0.9923664122137404,1.7099236641221374,-0.30134932533733133,-0.017991004497751123,0.1634182908545727,101.18633114981353,31.91734081248287,2024-09-20 14:45:19.958618112+02:00
1726836319978.1494,3.5217391304347827,3.184782608695652,11.184782608695652,2.0,2.082783882783883,480.1266268026732,-7.480916030534351,0.7175572519083969,1.7251908396946565,-0.3073463268365817,-0.03298350824587706,0.17541229385307347,101.18083012451967,31.91734081248287,2024-09-20 14:45:19.978149376+02:00
1726836319997.681,3.5543478260869565,3.141304347826087,11.152173913043478,2.0,2.082783882783883,480.1266268026732,-7.450381679389313,0.7786259541984732,1.7709923664122136,-0.3058470764617691,-0.022488755622188904,0.17241379310344826,101.17532910963746,31.91734081248287,2024-09-20 14:45:19.997680896+02:00
1726836320017.212,3.510869565217391,3.1956521739130435,11.16304347826087,2.0,2.082783882783883,480.1266268026732,-7.114503816793893,0.6106870229007634,1.5419847328244274,-0.3088455772113943,-0.01649175412293853,0.17241379310344826,101.18358063586516,31.91734081248287,2024-09-20 14:45:20.017211904+02:00
1726836320036.7432,3.5652173913043477,3.1630434782608696,11.184782608695652,2.0,2.082783882783883,480.1266268026732,-7.435114503816793,0.8396946564885496,1.5877862595419847,-0.3043478260869565,-0.025487256371814093,0.18440779610194902,101.18908166636481,31.91734081248287,2024-09-20 14:45:20.036743168+02:00
1726836320056.2744,3.510869565217391,3.152173913043478,11.141304347826086,2.0,2.0813186813186815,480.4646251319957,-7.49618320610687,0.6717557251908397,1.282442748091603,-0.3058470764617691,-0.026986506746626684,0.17391304347826086,101.18358063586516,31.91734081248287,2024-09-20 14:45:20.056274432+02:00
1726836320075.8057,3.5869565217391304,3.141304347826087,11.17391304347826,2.0,2.082783882783883,480.1266268026732,-7.770992366412213,1.1603053435114503,1.9389312977099236,-0.30134932533733133,-0.02848575712143928,0.17691154422788605,101.18633114981353,31.91734081248287,2024-09-20 14:45:20.075805696+02:00
1726836320095.337,3.4891304347826084,3.184782608695652,11.130434782608695,2.0,2.082783882783883,480.1266268026732,-6.824427480916031,0.564885496183206,1.1450381679389312,-0.29985007496251875,-0.034482758620689655,0.17541229385307347,101.18358063586516,31.91734081248287,2024-09-20 14:45:20.095336960+02:00
1726836320114.8682,3.5869565217391304,3.141304347826087,11.195652173913043,2.0,2.082783882783883,480.1266268026732,-8.0,1.129770992366412,1.8778625954198473,-0.3058470764617691,-0.04497751124437781,0.17541229385307347,101.18908166636481,31.91734081248287,2024-09-20 14:45:20.114868224+02:00
1726836320134.3994,3.532608695652174,3.152173913043478,11.141304347826086,2.0,2.082783882783883,480.1266268026732,-6.8396946564885495,0.9007633587786259,1.3435114503816794,-0.3148425787106447,-0.035982008995502246,0.17691154422788605,101.18358063586516,31.91734081248287,2024-09-20 14:45:20.134399488+02:00
1726836320153.931,3.5543478260869565,3.2065217391304346,11.184782608695652,2.0,2.0813186813186815,480.4646251319957,-7.633587786259541,1.0687022900763359,1.129770992366412,-0.3073463268365817,-0.014992503748125937,0.17991004497751123,101.18083012451967,31.91734081248287,2024-09-20 14:45:20.153931008+02:00
1726836320173.462,3.5652173913043477,3.141304347826087,11.141304347826086,2.0,2.082783882783883,480.1266268026732,-7.862595419847328,1.7251908396946565,1.9694656488549618,-0.30134932533733133,-0.026986506746626684,0.1664167916041979,101.18633114981353,31.91734081248287,2024-09-20 14:45:20.173462016+02:00
1726836320192.9932,3.467391304347826,3.1739130434782608,11.152173913043478,2.0,2.082783882783883,480.1266268026732,-7.7251908396946565,1.3282442748091603,1.8473282442748091,-0.3088455772113943,-0.020989505247376312,0.18140929535232383,101.18633114981353,31.91734081248287,2024-09-20 14:45:20.192993280+02:00
1726836320212.5244,3.467391304347826,3.141304347826087,11.16304347826087,2.0,2.0813186813186815,480.4646251319957,-8.351145038167939,1.3740458015267174,1.8015267175572518,-0.3043478260869565,-0.025487256371814093,0.1679160419790105,101.18633114981353,31.91734081248287,2024-09-20 14:45:20.212524288+02:00
1726836320232.0557,3.4782608695652173,3.141304347826087,11.16304347826087,2.0,2.082783882783883,480.1266268026732,-7.419847328244274,0.5954198473282443,1.816793893129771,-0.3028485757121439,-0.041979010494752625,0.17841079460269865,101.18908166636481,31.91734081248287,2024-09-20 14:45:20.232055552+02:00
1726836320251.587,3.543478260869565,3.141304347826087,11.152173913043478,2.0,2.082783882783883,480.1266268026732,-7.755725190839694,0.42748091603053434,1.66412213740458,-0.3028485757121439,-0.03298350824587706,0.17541229385307347,101.18908166636481,31.91734081248287,2024-09-20 14:45:20.251586816+02:00
1726836320271.1182,3.5652173913043477,3.184782608695652,11.141304347826086,2.0,2.0813186813186815,480.4646251319957,-7.221374045801526,0.42748091603053434,1.7862595419847327,-0.3073463268365817,-0.02848575712143928,0.17541229385307347,101.18083012451967,31.91734081248287,2024-09-20 14:45:20.271118080+02:00
1726836320290.6494,3.5869565217391304,3.1304347826086953,11.152173913043478,2.0,2.0813186813186815,480.4646251319957,-7.267175572519084,1.3740458015267174,1.450381679389313,-0.2983508245877061,-0.037481259370314844,0.17991004497751123,101.18358063586516,31.91734081248287,2024-09-20 14:45:20.290649344+02:00
1726836320310.181,3.5217391304347827,3.1739130434782608,11.17391304347826,2.0,2.0813186813186815,480.4646251319957,-7.526717557251908,1.4809160305343512,1.618320610687023,-0.2983508245877061,-0.025487256371814093,0.1679160419790105,101.18358063586516,31.91734081248287,2024-09-20 14:45:20.310180864+02:00
1726836320329.712,3.5,3.1956521739130435,11.184782608695652,2.0,2.07985347985348,480.80309968298695,-7.816793893129771,1.4198473282442747,1.618320610687023,-0.3103448275862069,-0.019490254872563718,0.17391304347826086,101.18633114981353,31.91734081248287,2024-09-20 14:45:20.329711872+02:00
1726836320349.2432,3.4891304347826084,3.152173913043478,11.130434782608695,2.0,2.07985347985348,480.80309968298695,-7.6183206106870225,0.8702290076335878,1.83206106870229,-0.3043478260869565,-0.026986506746626684,0.1679160419790105,101.18633114981353,31.91734081248287,2024-09-20 14:45:20.349243136+02:00
1726836320368.7744,3.5217391304347827,3.1630434782608696,11.184782608695652,2.0,2.0813186813186815,480.4646251319957,-7.435114503816793,0.8702290076335878,1.5725190839694656,-0.3058470764617691,-0.020989505247376312,0.17091454272863568,101.18633114981353,31.91734081248287,2024-09-20 14:45:20.368774400+02:00
1726836320388.3057,3.5760869565217392,3.152173913043478,11.16304347826087,2.0,2.07985347985348,480.80309968298695,-7.679389312977099,1.129770992366412,1.4809160305343512,-0.29985007496251875,-0.004497751124437781,0.17841079460269865,101.18908166636481,31.91734081248287,2024-09-20 14:45:20.388305664+02:00
1726836320407.837,3.543478260869565,3.152173913043478,11.16304347826087,2.0,2.0783882783882786,481.1420514628128,-7.587786259541985,1.4351145038167938,2.0763358778625953,-0.3043478260869565,-0.038980509745127435,0.17991004497751123,101.17807961577711,31.91734081248287,2024-09-20 14:45:20.407836928+02:00
1726836320427.3682,3.4782608695652173,3.184782608695652,11.184782608695652,2.0,2.07985347985348,480.80309968298695,-7.404580152671755,1.648854961832061,1.5572519083969465,-0.30134932533733133,-0.037481259370314844,0.17241379310344826,101.18083012451967,31.91734081248287,2024-09-20 14:45:20.427368192+02:00
1726836320446.8994,3.510869565217391,3.1630434782608696,11.184782608695652,2.0,2.07985347985348,480.80309968298695,-7.877862595419847,1.099236641221374,2.2442748091603053,-0.3103448275862069,-0.026986506746626684,0.17841079460269865,101.18083012451967,31.91734081248287,2024-09-20 14:45:20.446899456+02:00
1726836320466.431,3.4456521739130435,3.1304347826086953,11.152173913043478,2.0,2.07985347985348,480.80309968298695,-7.572519083969465,0.7938931297709924,1.9083969465648853,-0.3058470764617691,-0.037481259370314844,0.1829085457271364,101.17807961577711,31.91734081248287,2024-09-20 14:45:20.466430976+02:00
1726836320485.962,3.4891304347826084,3.2065217391304346,11.195652173913043,2.0,2.07985347985348,480.80309968298695,-7.206106870229007,1.4045801526717556,1.129770992366412,-0.3088455772113943,-0.0239880059970015,0.17241379310344826,101.18083012451967,31.91734081248287,2024-09-20 14:45:20.485961984+02:00
1726836320505.4932,3.532608695652174,3.141304347826087,11.130434782608695,2.0,2.0783882783882786,481.1420514628128,-8.213740458015266,0.9770992366412213,1.984732824427481,-0.30134932533733133,-0.020989505247376312,0.17091454272863568,101.18083012451967,31.91734081248287,2024-09-20 14:45:20.505493248+02:00
1726836320525.0244,3.4782608695652173,3.1630434782608696,11.195652173913043,2.0,2.0783882783882786,481.1420514628128,-7.709923664122137,0.6717557251908397,1.7557251908396947,-0.3028485757121439,-0.022488755622188904,0.19040479760119938,101.18908166636481,31.91734081248287,2024-09-20 14:45:20.525024512+02:00
1726836320544.5557,3.5217391304347827,3.152173913043478,11.16304347826087,2.0,2.0783882783882786,481.1420514628128,-7.969465648854961,0.8702290076335878,1.9389312977099236,-0.3088455772113943,-0.025487256371814093,0.17841079460269865,101.18633114981353,31.91734081248287,2024-09-20 14:45:20.544555776+02:00
1726836320564.087,3.510869565217391,3.152173913043478,11.16304347826087,2.0,2.076923076923077,481.48148148148147,-7.435114503816793,0.6412213740458015,1.816793893129771,-0.30134932533733133,-0.031484257871064465,0.17391304347826086,101.18358063586516,31.91734081248287,2024-09-20 14:45:20.564087040+02:00
1726836320583.6182,3.5,3.152173913043478,11.16304347826087,2.0,2.0783882783882786,481.1420514628128,-7.190839694656488,0.48854961832061067,1.7404580152671756,-0.30134932533733133,-0.037481259370314844,0.1874062968515742,101.18358063586516,31.91734081248287,2024-09-20 14:45:20.583618048+02:00
1726836320603.1494,3.532608695652174,3.1739130434782608,11.17391304347826,2.0,2.076923076923077,481.48148148148147,-7.175572519083969,0.6412213740458015,1.5572519083969465,-0.30134932533733133,-0.041979010494752625,0.17241379310344826,101.18633114981353,31.91734081248287,2024-09-20 14:45:20.603149312+02:00
1726836320622.681,3.543478260869565,3.141304347826087,11.152173913043478,2.0,2.076923076923077,481.48148148148147,-7.877862595419847,0.7022900763358778,1.6030534351145038,-0.3103448275862069,-0.037481259370314844,0.17541229385307347,101.18633114981353,31.91734081248287,2024-09-20 14:45:20.622680832+02:00
1726836320642.212,3.5,3.1630434782608696,11.16304347826087,2.0,2.076923076923077,481.48148148148147,-7.251908396946565,0.9618320610687022,1.7099236641221374,-0.3058470764617691,-0.025487256371814093,0.17691154422788605,101.18358063586516,31.91734081248287,2024-09-20 14:45:20.642211840+02:00
1726836320661.7432,3.532608695652174,3.1630434782608696,11.17391304347826,2.0,2.076923076923077,481.48148148148147,-7.709923664122137,1.2366412213740459,1.5572519083969465,-0.2983508245877061,-0.0239880059970015,0.17541229385307347,101.18908166636481,31.91734081248287,2024-09-20 14:45:20.661743104+02:00
1726836320681.2744,3.5543478260869565,3.1630434782608696,11.16304347826087,2.0,2.0754578754578756,481.82139075185313,-7.374045801526718,1.3282442748091603,1.465648854961832,-0.3058470764617691,-0.026986506746626684,0.17091454272863568,101.18358063586516,31.91734081248287,2024-09-20 14:45:20.681274368+02:00
1726836320700.8057,3.4891304347826084,3.152173913043478,11.17391304347826,2.0,2.0754578754578756,481.82139075185313,-7.404580152671755,1.297709923664122,1.7709923664122136,-0.29385307346326833,-0.02848575712143928,0.17391304347826086,101.18083012451967,31.91734081248287,2024-09-20 14:45:20.700805632+02:00
1726836320720.337,3.5217391304347827,3.152173913043478,11.16304347826087,2.0,2.0754578754578756,481.82139075185313,-7.404580152671755,0.9465648854961831,1.7404580152671756,-0.31334332833583206,-0.029985007496251874,0.17241379310344826,101.17807961577711,31.91734081248287,2024-09-20 14:45:20.720336896+02:00
1726836320739.8682,3.510869565217391,3.1630434782608696,11.16304347826087,2.0,2.0754578754578756,481.82139075185313,-7.709923664122137,1.114503816793893,1.5877862595419847,-0.3088455772113943,-0.04497751124437781,0.17541229385307347,101.18083012451967,31.91734081248287,2024-09-20 14:45:20.739868160+02:00
1726836320759.3994,3.543478260869565,3.1739130434782608,11.184782608695652,2.0,2.0739926739926737,482.16178028965027,-7.49618320610687,0.6106870229007634,1.7251908396946565,-0.3103448275862069,-0.031484257871064465,0.17691154422788605,101.18358063586516,31.91734081248287,2024-09-20 14:45:20.759399424+02:00
1726836320778.931,3.543478260869565,3.184782608695652,11.16304347826087,2.0,2.0754578754578756,481.82139075185313,-7.419847328244274,0.9618320610687022,1.618320610687023,-0.3043478260869565,-0.03298350824587706,0.17691154422788605,101.18083012451967,31.91734081248287,2024-09-20 14:45:20.778930944+02:00
1726836320798.462,3.510869565217391,3.1304347826086953,11.16304347826087,2.0,2.0739926739926737,482.16178028965027,-7.603053435114504,1.099236641221374,1.8778625954198473,-0.29985007496251875,-0.04497751124437781,0.17691154422788605,101.18358063586516,31.91734081248287,2024-09-20 14:45:20.798461952+02:00
1726836320817.9932,3.4782608695652173,3.1630434782608696,11.17391304347826,2.0,2.0739926739926737,482.16178028965027,-7.374045801526718,1.2213740458015268,1.4961832061068703,-0.3058470764617691,-0.019490254872563718,0.17691154422788605,101.18358063586516,31.91734081248287,2024-09-20 14:45:20.817993216+02:00
1726836320837.5244,3.5217391304347827,3.141304347826087,11.184782608695652,2.0,2.0739926739926737,482.16178028965027,-7.2824427480916025,1.0534351145038168,1.5725190839694656,-0.30134932533733133,-0.019490254872563718,0.18140929535232383,101.18358063586516,31.91734081248287,2024-09-20 14:45:20.837524480+02:00
1726836320857.0557,3.4891304347826084,3.152173913043478,11.152173913043478,2.0,2.0739926739926737,482.16178028965027,-7.465648854961832,0.8091603053435115,1.4351145038167938,-0.30134932533733133,-0.0239880059970015,0.17391304347826086,101.18633114981353,31.91734081248287,2024-09-20 14:45:20.857055744+02:00
1726836320876.587,3.4891304347826084,3.152173913043478,11.17391304347826,2.0,2.0725274725274727,482.5026511134676,-7.114503816793893,1.0687022900763359,1.5572519083969465,-0.29985007496251875,-0.020989505247376312,0.17841079460269865,101.18633114981353,31.91734081248287,2024-09-20 14:45:20.876587008+02:00
1726836320896.1182,3.5217391304347827,3.141304347826087,11.152173913043478,2.0,2.0725274725274727,482.5026511134676,-7.374045801526718,0.564885496183206,1.0381679389312977,-0.3058470764617691,-0.038980509745127435,0.1664167916041979,101.18633114981353,31.91734081248287,2024-09-20 14:45:20.896118272+02:00
1726836320915.6494,3.510869565217391,3.141304347826087,11.195652173913043,2.0,2.0725274725274727,482.5026511134676,-7.129770992366412,1.0229007633587786,1.465648854961832,-0.3028485757121439,-0.04497751124437781,0.1679160419790105,101.18083012451967,31.91734081248287,2024-09-20 14:45:20.915649536+02:00
1726836320935.181,3.4782608695652173,3.1739130434782608,11.17391304347826,2.0,2.0725274725274727,482.5026511134676,-7.404580152671755,0.6717557251908397,1.6793893129770991,-0.3103448275862069,-0.014992503748125937,0.17991004497751123,101.191832185519,31.91734081248287,2024-09-20 14:45:20.935180800+02:00
1726836320954.712,3.4891304347826084,3.141304347826087,11.184782608695652,2.0,2.0710622710622713,482.8440042447824,-6.870229007633587,1.129770992366412,1.4045801526717556,-0.29685157421289354,-0.03298350824587706,0.17541229385307347,101.18083012451967,31.91734081248287,2024-09-20 14:45:20.954711808+02:00
1726836320974.2432,3.532608695652174,3.152173913043478,11.130434782608695,2.0,2.0710622710622713,482.8440042447824,-7.603053435114504,0.32061068702290074,1.3893129770992365,-0.3118440779610195,-0.02848575712143928,0.16941529235382308,101.18083012451967,31.91734081248287,2024-09-20 14:45:20.974243072+02:00
1726836320993.7744,3.4782608695652173,3.141304347826087,11.184782608695652,2.0,2.0710622710622713,482.8440042447824,-7.633587786259541,0.9312977099236641,1.8473282442748091,-0.30134932533733133,-0.022488755622188904,0.16941529235382308,101.18083012451967,31.91734081248287,2024-09-20 14:45:20.993774336+02:00
1726836321013.3057,3.510869565217391,3.1630434782608696,11.152173913043478,2.0,2.0710622710622713,482.8440042447824,-7.603053435114504,0.916030534351145,1.4351145038167938,-0.3058470764617691,-0.025487256371814093,0.16941529235382308,101.18633114981353,31.91734081248287,2024-09-20 14:45:21.013305600+02:00
1726836321032.837,3.5,3.152173913043478,11.195652173913043,2.0,2.0710622710622713,482.8440042447824,-7.49618320610687,1.0076335877862594,1.4351145038167938,-0.30134932533733133,-0.022488755622188904,0.18440779610194902,101.18633114981353,31.91734081248287,2024-09-20 14:45:21.032836864+02:00
1726836321052.3682,3.5217391304347827,3.1630434782608696,11.16304347826087,2.0,2.0710622710622713,482.8440042447824,-7.572519083969465,0.2900763358778626,1.9083969465648853,-0.3058470764617691,-0.02848575712143928,0.17991004497751123,101.18908166636481,31.91734081248287,2024-09-20 14:45:21.052368128+02:00
1726836321071.8994,3.532608695652174,3.141304347826087,11.17391304347826,2.0,2.0710622710622713,482.8440042447824,-7.419847328244274,0.38167938931297707,1.8015267175572518,-0.3058470764617691,-0.038980509745127435,0.17391304347826086,101.18358063586516,31.91734081248287,2024-09-20 14:45:21.071899392+02:00
1726836321091.431,3.510869565217391,3.1304347826086953,11.217391304347826,2.0,2.06959706959707,483.18584070796453,-7.603053435114504,0.8549618320610687,1.6030534351145038,-0.3058470764617691,-0.029985007496251874,0.1664167916041979,101.18083012451967,31.91734081248287,2024-09-20 14:45:21.091430912+02:00
1726836321110.962,3.4782608695652173,3.141304347826087,11.16304347826087,2.0,2.0681318681318683,483.52816153028687,-7.465648854961832,0.6870229007633587,1.4351145038167938,-0.29535232383808097,-0.031484257871064465,0.1664167916041979,101.18358063586516,31.91734081248287,2024-09-20 14:45:21.110961920+02:00
1726836321130.4932,3.532608695652174,3.152173913043478,11.184782608695652,2.0,2.06959706959707,483.18584070796453,-7.343511450381679,0.7786259541984732,1.6030534351145038,-0.3028485757121439,-0.04047976011994003,0.17841079460269865,101.18633114981353,31.91734081248287,2024-09-20 14:45:21.130493184+02:00
1726836321150.0244,3.5543478260869565,3.184782608695652,11.16304347826087,2.0,2.06959706959707,483.18584070796453,-7.236641221374046,0.6259541984732824,1.5725190839694656,-0.3088455772113943,-0.0239880059970015,0.17241379310344826,101.18358063586516,31.91734081248287,2024-09-20 14:45:21.150024448+02:00
1726836321169.5557,3.543478260869565,3.1630434782608696,11.16304347826087,2.0,2.06959706959707,483.18584070796453,-7.312977099236641,0.5954198473282443,1.5267175572519083,-0.29985007496251875,-0.0239880059970015,0.17091454272863568,101.18633114981353,31.91734081248287,2024-09-20 14:45:21.169555712+02:00
1726836321189.087,3.5,3.141304347826087,11.141304347826086,2.0,2.0681318681318683,483.52816153028687,-7.893129770992366,1.3435114503816794,1.7251908396946565,-0.3103448275862069,-0.03298350824587706,0.18140929535232383,101.18358063586516,31.91734081248287,2024-09-20 14:45:21.189086976+02:00
1726836321208.6182,3.4565217391304346,3.152173913043478,11.16304347826087,2.0,2.0681318681318683,483.52816153028687,-7.862595419847328,1.1603053435114503,1.6030534351145038,-0.3043478260869565,-0.0239880059970015,0.17391304347826086,101.18358063586516,31.91734081248287,2024-09-20 14:45:21.208618240+02:00
1726836321228.1494,3.4782608695652173,3.141304347826087,11.17391304347826,2.0,2.0681318681318683,483.52816153028687,-7.450381679389313,1.099236641221374,1.9541984732824427,-0.3028485757121439,-0.037481259370314844,0.17091454272863568,101.18633114981353,31.91734081248287,2024-09-20 14:45:21.228149504+02:00
1726836321247.681,3.532608695652174,3.152173913043478,11.152173913043478,2.0,2.0681318681318683,483.52816153028687,-7.297709923664121,-0.07633587786259542,1.465648854961832,-0.29685157421289354,-0.035982008995502246,0.17841079460269865,101.18083012451967,31.91734081248287,2024-09-20 14:45:21.247681024+02:00
1726836321267.212,3.5652173913043477,3.1630434782608696,11.16304347826087,2.0,2.0681318681318683,483.52816153028687,-7.603053435114504,0.5343511450381679,1.5114503816793892,-0.29685157421289354,-0.03298350824587706,0.17991004497751123,101.18358063586516,31.91734081248287,2024-09-20 14:45:21.267212032+02:00
1726836321286.7432,3.5217391304347827,3.152173913043478,11.130434782608695,2.0,2.066666666666667,483.87096774193543,-7.648854961832061,0.8244274809160305,1.618320610687023,-0.30134932533733133,-0.025487256371814093,0.17391304347826086,101.18358063586516,31.91734081248287,2024-09-20 14:45:21.286743040+02:00
1726836321306.2744,3.5543478260869565,3.1630434782608696,11.228260869565217,2.0,2.066666666666667,483.87096774193543,-7.66412213740458,1.3435114503816794,1.450381679389313,-0.30134932533733133,-0.029985007496251874,0.17991004497751123,101.18633114981353,31.91734081248287,2024-09-20 14:45:21.306274304+02:00
1726836321325.8057,3.5,3.141304347826087,11.152173913043478,2.0,2.066666666666667,483.87096774193543,-7.7251908396946565,1.0534351145038168,1.5114503816793892,-0.3028485757121439,-0.026986506746626684,0.17391304347826086,101.18358063586516,31.91734081248287,2024-09-20 14:45:21.325805568+02:00
1726836321345.337,3.510869565217391,3.1739130434782608,11.152173913043478,2.0,2.066666666666667,483.87096774193543,-8.244274809160306,1.3587786259541985,1.3740458015267174,-0.2983508245877061,-0.025487256371814093,0.17691154422788605,101.18358063586516,31.91734081248287,2024-09-20 14:45:21.345336832+02:00
1726836321364.8682,3.510869565217391,3.119565217391304,11.130434782608695,2.0,2.0652014652014654,484.2142603760198,-8.076335877862595,1.5419847328244274,1.7557251908396947,-0.3028485757121439,-0.01649175412293853,0.1679160419790105,101.18358063586516,31.91734081248287,2024-09-20 14:45:21.364868096+02:00
1726836321384.3994,3.5,3.1630434782608696,11.184782608695652,2.0,2.0652014652014654,484.2142603760198,-7.694656488549618,1.9389312977099236,1.4961832061068703,-0.3058470764617691,-0.026986506746626684,0.17991004497751123,101.18358063586516,31.91734081248287,2024-09-20 14:45:21.384399360+02:00
1726836321403.931,3.5,3.1304347826086953,11.206521739130434,2.0,2.0652014652014654,484.2142603760198,-8.15267175572519,1.3435114503816794,1.4961832061068703,-0.3043478260869565,-0.037481259370314844,0.17391304347826086,101.18358063586516,31.91734081248287,2024-09-20 14:45:21.403930880+02:00
1726836321423.462,3.4891304347826084,3.141304347826087,11.16304347826087,2.0,2.063736263736264,484.55804046858356,-8.290076335877862,1.6793893129770991,1.5572519083969465,-0.3043478260869565,-0.029985007496251874,0.16941529235382308,101.18083012451967,31.91734081248287,2024-09-20 14:45:21.423461888+02:00
1726836321442.9932,3.467391304347826,3.141304347826087,11.17391304347826,2.0,2.063736263736264,484.55804046858356,-7.679389312977099,1.3435114503816794,1.6793893129770991,-0.30134932533733133,-0.041979010494752625,0.1679160419790105,101.17807961577711,31.91734081248287,2024-09-20 14:45:21.442993152+02:00
1726836321462.5244,3.4782608695652173,3.1630434782608696,11.152173913043478,2.0,2.062271062271062,484.9023090586146,-7.862595419847328,1.0076335877862594,1.7557251908396947,-0.3103448275862069,-0.031484257871064465,0.17841079460269865,101.18358063586516,31.91734081248287,2024-09-20 14:45:21.462524416+02:00
1726836321482.0557,3.5217391304347827,3.152173913043478,11.16304347826087,2.0,2.063736263736264,484.55804046858356,-7.862595419847328,0.7938931297709924,1.7251908396946565,-0.29985007496251875,-0.020989505247376312,0.17541229385307347,101.18083012451967,31.91734081248287,2024-09-20 14:45:21.482055680+02:00
1726836321501.587,3.5,3.141304347826087,11.184782608695652,2.0,2.063736263736264,484.55804046858356,-7.908396946564885,0.8702290076335878,1.7862595419847327,-0.3043478260869565,-0.022488755622188904,0.17541229385307347,101.18083012451967,31.91734081248287,2024-09-20 14:45:21.501586944+02:00
1726836321521.1182,3.4891304347826084,3.141304347826087,11.108695652173912,2.0,2.062271062271062,484.9023090586146,-7.450381679389313,1.1450381679389312,1.7099236641221374,-0.3028485757121439,-0.017991004497751123,0.17541229385307347,101.18633114981353,31.91734081248287,2024-09-20 14:45:21.521118208+02:00
1726836321540.6494,3.532608695652174,3.1304347826086953,11.228260869565217,2.0,2.062271062271062,484.9023090586146,-7.83206106870229,1.129770992366412,2.0,-0.29985007496251875,-0.026986506746626684,0.17241379310344826,101.18358063586516,31.91734081248287,2024-09-20 14:45:21.540649472+02:00
1726836321560.181,3.4782608695652173,3.141304347826087,11.17391304347826,2.0,2.0608058608058606,485.2470671880555,-8.0,0.3969465648854962,1.4198473282442747,-0.3058470764617691,-0.037481259370314844,0.1679160419790105,101.18908166636481,31.91734081248287,2024-09-20 14:45:21.560180992+02:00
1726836321579.712,3.543478260869565,3.1739130434782608,11.108695652173912,2.0,2.062271062271062,484.9023090586146,-7.603053435114504,1.1755725190839694,2.0,-0.3028485757121439,-0.031484257871064465,0.17091454272863568,101.18633114981353,31.91734081248287,2024-09-20 14:45:21.579712+02:00
1726836321599.2432,3.543478260869565,3.119565217391304,11.206521739130434,2.0,2.062271062271062,484.9023090586146,-8.229007633587786,1.8931297709923662,1.7099236641221374,-0.29385307346326833,-0.037481259370314844,0.17841079460269865,101.18083012451967,31.91734081248287,2024-09-20 14:45:21.599243264+02:00
1726836321618.7744,3.5,3.1630434782608696,11.217391304347826,2.0,2.062271062271062,484.9023090586146,-7.572519083969465,1.8931297709923662,1.3129770992366412,-0.30134932533733133,-0.034482758620689655,0.1634182908545727,101.18633114981353,31.91734081248287,2024-09-20 14:45:21.618774528+02:00
1726836321638.3057,3.4456521739130435,3.141304347826087,11.141304347826086,2.0,2.0608058608058606,485.2470671880555,-8.244274809160306,0.8702290076335878,1.6946564885496183,-0.30134932533733133,-0.031484257871064465,0.17391304347826086,101.18358063586516,31.91734081248287,2024-09-20 14:45:21.638305792+02:00
1726836321657.837,3.4891304347826084,3.119565217391304,11.141304347826086,2.0,2.0608058608058606,485.2470671880555,-7.465648854961832,1.6030534351145038,1.465648854961832,-0.3043478260869565,-0.02848575712143928,0.17391304347826086,101.18633114981353,31.91734081248287,2024-09-20 14:45:21.657836800+02:00
1726836321677.3682,3.4891304347826084,3.108695652173913,11.26086956521739,2.0,2.0608058608058606,485.2470671880555,-8.16793893129771,1.984732824427481,1.4961832061068703,-0.3028485757121439,-0.022488755622188904,0.17541229385307347,101.18633114981353,31.91734081248287,2024-09-20 14:45:21.677368064+02:00
1726836321696.8994,3.402173913043478,3.1630434782608696,10.989130434782608,2.0,2.0608058608058606,485.2470671880555,-7.206106870229007,0.9007633587786259,0.7175572519083969,-0.3043478260869565,-0.022488755622188904,0.17541229385307347,101.18358063586516,31.91734081248287,2024-09-20 14:45:21.696899328+02:00
1726836321716.431,3.4782608695652173,3.152173913043478,11.26086956521739,2.0,2.059340659340659,485.59231590181435,-7.450381679389313,1.9694656488549618,1.83206106870229,-0.30134932533733133,-0.02848575712143928,0.17241379310344826,101.18083012451967,31.91734081248287,2024-09-20 14:45:21.716430848+02:00
1726836321735.962,3.4891304347826084,3.108695652173913,11.152173913043478,2.0,2.059340659340659,485.59231590181435,-8.045801526717558,0.07633587786259542,1.297709923664122,-0.30134932533733133,-0.029985007496251874,0.17091454272863568,101.18358063586516,31.91734081248287,2024-09-20 14:45:21.735961856+02:00
1726836321755.4932,3.4565217391304346,3.1739130434782608,11.130434782608695,2.0,2.059340659340659,485.59231590181435,-7.0534351145038165,0.41221374045801523,1.6335877862595418,-0.30134932533733133,-0.034482758620689655,0.17241379310344826,101.18083012451967,31.91734081248287,2024-09-20 14:45:21.755493120+02:00
1726836321775.0244,3.532608695652174,3.119565217391304,11.228260869565217,2.0,2.059340659340659,485.59231590181435,-7.7251908396946565,1.3129770992366412,1.3740458015267174,-0.3058470764617691,-0.034482758620689655,0.1679160419790105,101.18358063586516,31.91734081248287,2024-09-20 14:45:21.775024384+02:00
1726836321794.5557,3.4456521739130435,3.108695652173913,11.119565217391305,2.0,2.059340659340659,485.59231590181435,-8.015267175572518,0.3969465648854962,1.465648854961832,-0.29535232383808097,-0.038980509745127435,0.17541229385307347,101.18358063586516,31.91734081248287,2024-09-20 14:45:21.794555648+02:00
1726836321814.087,3.510869565217391,3.152173913043478,11.184782608695652,2.0,2.0578754578754572,485.9380562477751,-7.557251908396946,1.0687022900763359,1.6946564885496183,-0.3028485757121439,-0.022488755622188904,0.17691154422788605,101.18083012451967,31.91734081248287,2024-09-20 14:45:21.814086912+02:00
1726836321833.6182,3.4891304347826084,3.108695652173913,11.206521739130434,2.0,2.0578754578754572,485.9380562477751,-7.816793893129771,1.2519083969465647,1.450381679389313,-0.3088455772113943,-0.025487256371814093,0.17841079460269865,101.18083012451967,31.91734081248287,2024-09-20 14:45:21.833618176+02:00
1726836321853.1494,3.4891304347826084,3.1304347826086953,11.130434782608695,2.0,2.0578754578754572,485.9380562477751,-7.633587786259541,0.7022900763358778,1.7709923664122136,-0.3028485757121439,-0.029985007496251874,0.16941529235382308,101.18358063586516,31.91734081248287,2024-09-20 14:45:21.853149440+02:00
1726836321872.681,3.4782608695652173,3.141304347826087,11.217391304347826,2.0,2.0578754578754572,485.9380562477751,-7.465648854961832,1.3282442748091603,1.7404580152671756,-0.3043478260869565,-0.03298350824587706,0.17241379310344826,101.18358063586516,31.91734081248287,2024-09-20 14:45:21.872680960+02:00
1726836321892.212,3.4782608695652173,3.152173913043478,11.130434782608695,2.0,2.0578754578754572,485.9380562477751,-7.32824427480916,0.549618320610687,1.8625954198473282,-0.29985007496251875,0.0,0.17391304347826086,101.18083012451967,31.91734081248287,2024-09-20 14:45:21.892211968+02:00
1726836321911.7432,3.4891304347826084,3.119565217391304,11.17391304347826,2.0,2.0578754578754572,485.9380562477751,-7.83206106870229,0.183206106870229,2.198473282442748,-0.3088455772113943,-0.02848575712143928,0.17541229385307347,101.18083012451967,31.91734081248287,2024-09-20 14:45:21.911743232+02:00
1726836321931.2744,3.4565217391304346,3.1304347826086953,11.217391304347826,2.0,2.0578754578754572,485.9380562477751,-7.3893129770992365,0.3969465648854962,1.83206106870229,-0.3118440779610195,-0.03298350824587706,0.1679160419790105,101.18358063586516,31.91734081248287,2024-09-20 14:45:21.931274496+02:00
1726836321950.8057,3.510869565217391,3.1304347826086953,11.119565217391305,2.0,2.0578754578754572,485.9380562477751,-7.068702290076335,0.030534351145038167,1.8015267175572518,-0.30134932533733133,-0.031484257871064465,0.17691154422788605,101.17807961577711,31.91734081248287,2024-09-20 14:45:21.950805760+02:00
1726836321970.337,3.4565217391304346,3.108695652173913,11.206521739130434,2.0,2.0578754578754572,485.9380562477751,-7.450381679389313,0.21374045801526717,1.8625954198473282,-0.3073463268365817,-0.026986506746626684,0.17241379310344826,101.18358063586516,31.91734081248287,2024-09-20 14:45:21.970337024+02:00
1726836321989.8682,3.510869565217391,3.1630434782608696,11.17391304347826,2.0,2.0578754578754572,485.9380562477751,-6.885496183206107,-0.33587786259541985,1.465648854961832,-0.3073463268365817,-0.02848575712143928,0.17841079460269865,101.18633114981353,31.91734081248287,2024-09-20 14:45:21.989868288+02:00
1726836322009.3994,3.5652173913043477,3.119565217391304,11.152173913043478,2.0,2.0578754578754572,485.9380562477751,-7.66412213740458,0.07633587786259542,2.015267175572519,-0.3043478260869565,-0.020989505247376312,0.17391304347826086,101.18633114981353,31.91734081248287,2024-09-20 14:45:22.009399296+02:00
1726836322028.931,3.5543478260869565,3.152173913043478,11.184782608695652,2.0,2.0578754578754572,485.9380562477751,-7.465648854961832,0.13740458015267176,1.9541984732824427,-0.3073463268365817,-0.022488755622188904,0.17991004497751123,101.18908166636481,31.91734081248287,2024-09-20 14:45:22.028930816+02:00
1726836322048.462,3.4891304347826084,3.152173913043478,11.141304347826086,2.0,2.056410256410256,486.284289276808,-7.648854961832061,0.7175572519083969,1.618320610687023,-0.30134932533733133,-0.025487256371814093,0.17391304347826086,101.18633114981353,31.91734081248287,2024-09-20 14:45:22.048461824+02:00
1726836322067.9932,3.5217391304347827,3.141304347826087,11.16304347826087,2.0,2.0578754578754572,485.9380562477751,-7.603053435114504,0.38167938931297707,1.8015267175572518,-0.3028485757121439,-0.04047976011994003,0.17391304347826086,101.18358063586516,31.91734081248287,2024-09-20 14:45:22.067993088+02:00
1726836322087.5244,3.5,3.119565217391304,11.17391304347826,2.0,2.056410256410256,486.284289276808,-7.938931297709924,1.2213740458015268,1.7251908396946565,-0.2983508245877061,-0.037481259370314844,0.18140929535232383,101.18083012451967,31.91734081248287,2024-09-20 14:45:22.087524352+02:00
1726836322107.0557,3.5,3.152173913043478,11.141304347826086,2.0,2.056410256410256,486.284289276808,-7.32824427480916,0.7175572519083969,1.3893129770992365,-0.29235382308845576,-0.03298350824587706,0.17541229385307347,101.18083012451967,31.91734081248287,2024-09-20 14:45:22.107055616+02:00
1726836322126.587,3.543478260869565,3.1304347826086953,11.184782608695652,2.0,2.056410256410256,486.284289276808,-7.557251908396946,1.2366412213740459,1.5572519083969465,-0.30134932533733133,-0.025487256371814093,0.18440779610194902,101.18083012451967,31.91734081248287,2024-09-20 14:45:22.126586880+02:00
1726836322146.1182,3.5,3.152173913043478,11.141304347826086,2.0,2.056410256410256,486.284289276808,-7.129770992366412,1.129770992366412,1.5267175572519083,-0.29985007496251875,-0.013493253373313342,0.17691154422788605,101.18358063586516,31.91734081248287,2024-09-20 14:45:22.146118144+02:00
1726836322165.6494,3.510869565217391,3.1630434782608696,11.152173913043478,2.0,2.0549450549450547,486.6310160427808,-7.587786259541985,1.4809160305343512,1.618320610687023,-0.3058470764617691,-0.017991004497751123,0.17991004497751123,101.17807961577711,31.91734081248287,2024-09-20 14:45:22.165649408+02:00
1726836322185.181,3.467391304347826,3.119565217391304,11.206521739130434,2.0,2.056410256410256,486.284289276808,-7.404580152671755,1.9083969465648853,1.6946564885496183,-0.3043478260869565,-0.01649175412293853,0.16941529235382308,101.18633114981353,31.91734081248287,2024-09-20 14:45:22.185180928+02:00
1726836322204.712,3.4456521739130435,3.119565217391304,11.141304347826086,2.0,2.056410256410256,486.284289276808,-7.465648854961832,1.1603053435114503,1.6946564885496183,-0.30134932533733133,-0.025487256371814093,0.17541229385307347,101.18358063586516,31.91734081248287,2024-09-20 14:45:22.204711936+02:00
1726836322224.2432,3.510869565217391,3.141304347826087,11.17391304347826,2.0,2.056410256410256,486.284289276808,-7.557251908396946,0.7938931297709924,1.4198473282442747,-0.29985007496251875,-0.04047976011994003,0.17691154422788605,101.18358063586516,31.91734081248287,2024-09-20 14:45:22.224243200+02:00
1726836322243.7744,3.5760869565217392,3.108695652173913,11.206521739130434,2.0,2.056410256410256,486.284289276808,-7.770992366412213,0.9618320610687022,1.7404580152671756,-0.29985007496251875,-0.035982008995502246,0.17241379310344826,101.18633114981353,31.91734081248287,2024-09-20 14:45:22.243774464+02:00
1726836322263.3057,3.5217391304347827,3.108695652173913,11.152173913043478,2.0,2.056410256410256,486.284289276808,-7.49618320610687,1.4045801526717556,1.6946564885496183,-0.3058470764617691,-0.037481259370314844,0.17391304347826086,101.18358063586516,31.91734081248287,2024-09-20 14:45:22.263305728+02:00
1726836322282.837,3.4891304347826084,3.152173913043478,11.152173913043478,2.0,2.0549450549450547,486.6310160427808,-7.7251908396946565,1.648854961832061,1.648854961832061,-0.29985007496251875,-0.03298350824587706,0.18140929535232383,101.18083012451967,31.91734081248287,2024-09-20 14:45:22.282836992+02:00
1726836322302.3682,3.467391304347826,3.0978260869565215,11.16304347826087,2.0,2.0549450549450547,486.6310160427808,-7.49618320610687,2.030534351145038,1.66412213740458,-0.30134932533733133,-0.037481259370314844,0.18440779610194902,101.18633114981353,31.91734081248287,2024-09-20 14:45:22.302368256+02:00
1726836322321.8994,3.510869565217391,3.141304347826087,11.16304347826087,2.0,2.0549450549450547,486.6310160427808,-7.32824427480916,1.83206106870229,1.450381679389313,-0.3073463268365817,-0.026986506746626684,0.17241379310344826,101.18358063586516,31.91734081248287,2024-09-20 14:45:22.321899520+02:00
1726836322341.431,3.543478260869565,3.141304347826087,11.206521739130434,2.0,2.0549450549450547,486.6310160427808,-7.450381679389313,2.2442748091603053,1.5419847328244274,-0.30134932533733133,-0.0239880059970015,0.1664167916041979,101.18358063586516,31.91734081248287,2024-09-20 14:45:22.341430784+02:00
1726836322360.962,3.4130434782608696,3.108695652173913,11.152173913043478,2.0,2.0549450549450547,486.6310160427808,-7.526717557251908,3.2213740458015265,1.3740458015267174,-0.3043478260869565,-0.025487256371814093,0.18440779610194902,101.18083012451967,31.91734081248287,2024-09-20 14:45:22.360961792+02:00
1726836322380.4932,3.4565217391304346,3.152173913043478,11.17391304347826,2.0,2.0549450549450547,486.6310160427808,-7.908396946564885,1.5877862595419847,0.8549618320610687,-0.3043478260869565,-0.026986506746626684,0.17541229385307347,101.18083012451967,31.91734081248287,2024-09-20 14:45:22.380493056+02:00
1726836322400.0244,3.4239130434782608,3.119565217391304,11.206521739130434,2.0,2.0549450549450547,486.6310160427808,-7.129770992366412,2.7938931297709924,1.450381679389313,-0.3058470764617691,-0.03298350824587706,0.17391304347826086,101.18358063586516,31.91734081248287,2024-09-20 14:45:22.400024320+02:00
1726836322419.5557,3.4456521739130435,3.1739130434782608,11.130434782608695,2.0,2.0534798534798533,486.9782376025687,-7.312977099236641,0.8244274809160305,0.8702290076335878,-0.29535232383808097,-0.026986506746626684,0.17541229385307347,101.17807961577711,31.91734081248287,2024-09-20 14:45:22.419555584+02:00
1726836322439.087,3.4130434782608696,3.108695652173913,11.228260869565217,2.0,2.0534798534798533,486.9782376025687,-6.641221374045801,1.4961832061068703,1.6030534351145038,-0.29385307346326833,-0.043478260869565216,0.16941529235382308,101.18083012451967,31.91734081248287,2024-09-20 14:45:22.439086848+02:00
1726836322458.6182,3.391304347826087,3.1956521739130435,11.141304347826086,2.0,2.0534798534798533,486.9782376025687,-6.854961832061068,0.21374045801526717,1.2671755725190839,-0.30134932533733133,-0.031484257871064465,0.17841079460269865,101.18633114981353,31.91734081248287,2024-09-20 14:45:22.458618112+02:00
1726836322478.1494,3.4565217391304346,3.1739130434782608,11.195652173913043,2.0,2.0534798534798533,486.9782376025687,-6.671755725190839,-0.7175572519083969,2.33587786259542,-0.3088455772113943,-0.020989505247376312,0.17091454272863568,101.17807961577711,31.91734081248287,2024-09-20 14:45:22.478149376+02:00
1726836322497.681,3.467391304347826,3.1304347826086953,11.130434782608695,2.0,2.0534798534798533,486.9782376025687,-7.893129770992366,-0.8396946564885496,2.9923664122137406,-0.3043478260869565,-0.019490254872563718,0.17841079460269865,101.17978434892655,31.927452673111112,2024-09-20 14:45:22.497680896+02:00
1726836322517.212,3.5,3.141304347826087,11.184782608695652,2.0,2.052014652014652,487.32595501606573,-7.526717557251908,-1.2366412213740459,2.854961832061069,-0.29985007496251875,-0.0239880059970015,0.17991004497751123,101.18803601693287,31.927452673111112,2024-09-20 14:45:22.517211904+02:00
1726836322536.7432,3.5543478260869565,3.108695652173913,11.195652173913043,2.0,2.0534798534798533,486.9782376025687,-7.770992366412213,-0.04580152671755725,3.4351145038167936,-0.30134932533733133,-0.02848575712143928,0.17241379310344826,101.18253490232567,31.927452673111112,2024-09-20 14:45:22.536743168+02:00
1726836322556.2744,3.532608695652174,3.1630434782608696,11.17391304347826,2.0,2.0534798534798533,486.9782376025687,-7.908396946564885,-0.5801526717557252,2.396946564885496,-0.29985007496251875,-0.04047976011994003,0.17391304347826086,101.19078657814093,31.927452673111112,2024-09-20 14:45:22.556274432+02:00
1726836322575.8057,3.532608695652174,3.119565217391304,11.17391304347826,2.0,2.052014652014652,487.32595501606573,-8.061068702290076,0.6412213740458015,2.9770992366412212,-0.30134932533733133,-0.031484257871064465,0.17541229385307347,101.18253490232567,31.927452673111112,2024-09-20 14:45:22.575805696+02:00
1726836322595.337,3.532608695652174,3.152173913043478,11.195652173913043,2.0,2.0534798534798533,486.9782376025687,-8.320610687022901,0.47328244274809156,3.0076335877862594,-0.2983508245877061,-0.03298350824587706,0.17091454272863568,101.18253490232567,31.927452673111112,2024-09-20 14:45:22.595336960+02:00
1726836322614.8682,3.510869565217391,3.1304347826086953,11.17391304347826,2.0,2.0534798534798533,486.9782376025687,-7.908396946564885,1.8473282442748091,3.1908396946564883,-0.30134932533733133,-0.014992503748125937,0.16941529235382308,101.18803601693287,31.927452673111112,2024-09-20 14:45:22.614868224+02:00
1726836322634.3994,3.510869565217391,3.0978260869565215,11.17391304347826,2.0,2.052014652014652,487.32595501606573,-7.786259541984733,2.1374045801526718,2.610687022900763,-0.30134932533733133,-0.025487256371814093,0.16941529235382308,101.19078657814093,31.927452673111112,2024-09-20 14:45:22.634399488+02:00
1726836322653.931,3.5,3.141304347826087,11.195652173913043,2.0,2.052014652014652,487.32595501606573,-7.3893129770992365,2.213740458015267,2.229007633587786,-0.29985007496251875,-0.022488755622188904,0.1874062968515742,101.18528545832777,31.927452673111112,2024-09-20 14:45:22.653931008+02:00
1726836322673.462,3.5543478260869565,3.119565217391304,11.217391304347826,2.0,2.0534798534798533,486.9782376025687,-8.15267175572519,2.0610687022900764,2.6412213740458013,-0.3058470764617691,-0.026986506746626684,0.17091454272863568,101.18528545832777,31.927452673111112,2024-09-20 14:45:22.673462016+02:00
1726836322692.9932,3.467391304347826,3.0978260869565215,11.17391304347826,2.0,2.052014652014652,487.32595501606573,-7.572519083969465,1.7557251908396947,2.3206106870229006,-0.3058470764617691,-0.020989505247376312,0.17991004497751123,101.18253490232567,31.927452673111112,2024-09-20 14:45:22.692993280+02:00
1726836322712.5244,3.4456521739130435,3.119565217391304,11.17391304347826,2.0,2.052014652014652,487.32595501606573,-7.312977099236641,1.5419847328244274,2.1526717557251906,-0.29385307346326833,-0.0239880059970015,0.1679160419790105,101.18528545832777,31.927452673111112,2024-09-20 14:45:22.712524288+02:00
1726836322732.0557,3.4456521739130435,3.119565217391304,11.217391304347826,2.0,2.052014652014652,487.32595501606573,-7.297709923664121,1.4045801526717556,2.1221374045801524,-0.3043478260869565,-0.005997001499250375,0.16941529235382308,101.18528545832777,31.927452673111112,2024-09-20 14:45:22.732055552+02:00
1726836322751.587,3.5,3.1304347826086953,11.17391304347826,2.0,2.052014652014652,487.32595501606573,-6.99236641221374,1.3587786259541985,2.259541984732824,-0.2983508245877061,-0.034482758620689655,0.16941529235382308,101.18528545832777,31.927452673111112,2024-09-20 14:45:22.751586816+02:00
1726836322771.1182,3.4891304347826084,3.1304347826086953,11.184782608695652,2.0,2.052014652014652,487.32595501606573,-7.206106870229007,1.4198473282442747,2.5801526717557253,-0.3028485757121439,-0.035982008995502246,0.17691154422788605,101.18253490232567,31.927452673111112,2024-09-20 14:45:22.771118080+02:00
1726836322790.6494,3.4239130434782608,3.108695652173913,11.195652173913043,2.0,2.052014652014652,487.32595501606573,-7.66412213740458,1.083969465648855,1.8473282442748091,-0.3058470764617691,-0.026986506746626684,0.17391304347826086,101.19078657814093,31.927452673111112,2024-09-20 14:45:22.790649344+02:00
1726836322810.181,3.5217391304347827,3.141304347826087,11.184782608695652,2.0,2.052014652014652,487.32595501606573,-7.862595419847328,1.3740458015267174,2.396946564885496,-0.31334332833583206,-0.025487256371814093,0.17241379310344826,101.18253490232567,31.927452673111112,2024-09-20 14:45:22.810180864+02:00
1726836322829.712,3.4130434782608696,3.119565217391304,11.16304347826087,2.0,2.052014652014652,487.32595501606573,-8.030534351145038,1.2061068702290076,1.618320610687023,-0.3088455772113943,-0.031484257871064465,0.1649175412293853,101.18803601693287,31.927452673111112,2024-09-20 14:45:22.829711872+02:00
1726836322849.2432,3.467391304347826,3.119565217391304,11.184782608695652,2.0,2.052014652014652,487.32595501606573,-8.0,0.8702290076335878,1.618320610687023,-0.29985007496251875,-0.025487256371814093,0.17241379310344826,101.17978434892655,31.927452673111112,2024-09-20 14:45:22.849243136+02:00
1726836322868.7744,3.4565217391304346,3.108695652173913,11.17391304347826,2.0,2.0505494505494504,487.67416934619513,-7.435114503816793,0.8702290076335878,1.618320610687023,-0.30134932533733133,-0.035982008995502246,0.1664167916041979,101.18528545832777,31.927452673111112,2024-09-20 14:45:22.868774400+02:00
1726836322888.3057,3.434782608695652,3.141304347826087,11.195652173913043,2.0,2.052014652014652,487.32595501606573,-7.419847328244274,-0.015267175572519083,1.450381679389313,-0.30134932533733133,-0.03298350824587706,0.1634182908545727,101.18253490232567,31.927452673111112,2024-09-20 14:45:22.888305664+02:00
1726836322907.837,3.5,3.0978260869565215,11.17391304347826,2.0,2.052014652014652,487.32595501606573,-7.465648854961832,0.3969465648854962,1.8625954198473282,-0.3028485757121439,-0.029985007496251874,0.17391304347826086,101.19078657814093,31.927452673111112,2024-09-20 14:45:22.907836928+02:00
1726836322927.3682,3.434782608695652,3.119565217391304,11.195652173913043,2.0,2.0505494505494504,487.67416934619513,-6.748091603053435,0.0916030534351145,1.465648854961832,-0.2983508245877061,-0.037481259370314844,0.17691154422788605,101.17978434892655,31.927452673111112,2024-09-20 14:45:22.927368192+02:00
1726836322946.8994,3.510869565217391,3.1304347826086953,11.184782608695652,2.0,2.0505494505494504,487.67416934619513,-7.358778625954198,-0.12213740458015267,1.4351145038167938,-0.3088455772113943,-0.038980509745127435,0.17541229385307347,101.17703379813044,31.927452673111112,2024-09-20 14:45:22.946899456+02:00
1726836322966.431,3.4565217391304346,3.108695652173913,11.16304347826087,2.0,2.0505494505494504,487.67416934619513,-6.778625954198473,0.16793893129770993,1.816793893129771,-0.2983508245877061,-0.026986506746626684,0.17091454272863568,101.17978434892655,31.927452673111112,2024-09-20 14:45:22.966430976+02:00
1726836322985.962,3.510869565217391,3.1304347826086953,11.16304347826087,2.0,2.0505494505494504,487.67416934619513,-7.083969465648854,0.41221374045801523,1.8625954198473282,-0.3043478260869565,-0.0239880059970015,0.17091454272863568,101.18528545832777,31.927452673111112,2024-09-20 14:45:22.985961984+02:00
1726836323005.4932,3.4565217391304346,3.108695652173913,11.184782608695652,2.0,2.0505494505494504,487.67416934619513,-6.885496183206107,0.1984732824427481,1.3740458015267174,-0.29685157421289354,-0.025487256371814093,0.17241379310344826,101.19078657814093,31.927452673111112,2024-09-20 14:45:23.005493248+02:00
1726836323025.0244,3.5652173913043477,3.141304347826087,11.141304347826086,2.0,2.0505494505494504,487.67416934619513,-7.022900763358779,-0.030534351145038167,1.1603053435114503,-0.3073463268365817,-0.026986506746626684,0.17391304347826086,101.18528545832777,31.927452673111112,2024-09-20 14:45:23.025024512+02:00
1726836323044.5557,3.5,3.119565217391304,11.17391304347826,2.0,2.049084249084249,488.0228816589203,-7.603053435114504,1.297709923664122,1.5267175572519083,-0.3088455772113943,-0.02848575712143928,0.17541229385307347,101.18803601693287,31.927452673111112,2024-09-20 14:45:23.044555776+02:00
1726836323064.087,3.467391304347826,3.119565217391304,11.152173913043478,2.0,2.049084249084249,488.0228816589203,-7.068702290076335,0.9007633587786259,1.4045801526717556,-0.3058470764617691,-0.014992503748125937,0.17391304347826086,101.18253490232567,31.927452673111112,2024-09-20 14:45:23.064087040+02:00
1726836323083.6182,3.4782608695652173,3.1304347826086953,11.184782608695652,2.0,2.049084249084249,488.0228816589203,-7.419847328244274,0.8702290076335878,1.4961832061068703,-0.29985007496251875,-0.038980509745127435,0.17691154422788605,101.18528545832777,31.927452673111112,2024-09-20 14:45:23.083618048+02:00
1726836323103.1494,3.5,3.1630434782608696,11.195652173913043,2.0,2.049084249084249,488.0228816589203,-6.916030534351145,0.732824427480916,1.3587786259541985,-0.3043478260869565,-0.034482758620689655,0.17691154422788605,101.18803601693287,31.927452673111112,2024-09-20 14:45:23.103149312+02:00
1726836323122.681,3.543478260869565,3.152173913043478,11.16304347826087,2.0,2.049084249084249,488.0228816589203,-7.297709923664121,0.6564885496183206,1.0381679389312977,-0.3028485757121439,-0.02848575712143928,0.16941529235382308,101.18803601693287,31.927452673111112,2024-09-20 14:45:23.122680832+02:00
1726836323142.212,3.4782608695652173,3.152173913043478,11.17391304347826,2.0,2.049084249084249,488.0228816589203,-6.900763358778626,0.8396946564885496,1.66412213740458,-0.29685157421289354,-0.019490254872563718,0.1679160419790105,101.18528545832777,31.927452673111112,2024-09-20 14:45:23.142211840+02:00
1726836323161.7432,3.467391304347826,3.1304347826086953,11.16304347826087,2.0,2.049084249084249,488.0228816589203,-7.038167938931298,1.0687022900763359,1.5725190839694656,-0.3073463268365817,-0.022488755622188904,0.17091454272863568,101.18253490232567,31.927452673111112,2024-09-20 14:45:23.161743104+02:00
1726836323181.2744,3.4565217391304346,3.141304347826087,11.16304347826087,2.0,2.049084249084249,488.0228816589203,-7.114503816793893,0.5801526717557252,1.7099236641221374,-0.3043478260869565,-0.0239880059970015,0.17691154422788605,101.17978434892655,31.927452673111112,2024-09-20 14:45:23.181274368+02:00
1726836323200.8057,3.467391304347826,3.141304347826087,11.17391304347826,2.0,2.049084249084249,488.0228816589203,-7.251908396946565,-0.12213740458015267,1.7251908396946565,-0.3043478260869565,-0.029985007496251874,0.17391304347826086,101.17978434892655,31.927452673111112,2024-09-20 14:45:23.200805632+02:00
1726836323220.337,3.510869565217391,3.119565217391304,11.141304347826086,2.0,2.047619047619048,488.37209302325584,-7.267175572519084,-0.3969465648854962,1.816793893129771,-0.3028485757121439,-0.031484257871064465,0.17091454272863568,101.18528545832777,31.927452673111112,2024-09-20 14:45:23.220336896+02:00
1726836323239.8682,3.510869565217391,3.119565217391304,11.141304347826086,2.0,2.049084249084249,488.0228816589203,-7.068702290076335,-0.12213740458015267,2.0610687022900764,-0.29685157421289354,-0.02848575712143928,0.1664167916041979,101.18528545832777,31.927452673111112,2024-09-20 14:45:23.239868160+02:00
1726836323259.3994,3.543478260869565,3.152173913043478,11.152173913043478,2.0,2.047619047619048,488.37209302325584,-7.145038167938931,-0.1984732824427481,1.66412213740458,-0.3043478260869565,-0.0239880059970015,0.1679160419790105,101.18803601693287,31.927452673111112,2024-09-20 14:45:23.259399424+02:00
1726836323278.931,3.5217391304347827,3.119565217391304,11.16304347826087,2.0,2.047619047619048,488.37209302325584,-7.038167938931298,0.07633587786259542,1.8473282442748091,-0.3028485757121439,-0.025487256371814093,0.1649175412293853,101.18253490232567,31.927452673111112,2024-09-20 14:45:23.278930944+02:00
1726836323298.462,3.5217391304347827,3.1304347826086953,11.141304347826086,2.0,2.047619047619048,488.37209302325584,-7.267175572519084,0.2748091603053435,1.5267175572519083,-0.3073463268365817,-0.022488755622188904,0.1679160419790105,101.18528545832777,31.927452673111112,2024-09-20 14:45:23.298461952+02:00
1726836323317.9932,3.510869565217391,3.152173913043478,11.16304347826087,2.0,2.047619047619048,488.37209302325584,-7.190839694656488,0.549618320610687,1.5877862595419847,-0.29985007496251875,-0.017991004497751123,0.17241379310344826,101.18253490232567,31.927452673111112,2024-09-20 14:45:23.317993216+02:00
1726836323337.5244,3.5543478260869565,3.1630434782608696,11.16304347826087,2.0,2.047619047619048,488.37209302325584,-7.312977099236641,1.0381679389312977,1.7709923664122136,-0.3028485757121439,-0.035982008995502246,0.17391304347826086,101.18528545832777,31.927452673111112,2024-09-20 14:45:23.337524480+02:00
1726836323357.0557,3.5,3.119565217391304,11.16304347826087,2.0,2.046153846153846,488.7218045112782,-7.221374045801526,1.450381679389313,1.7709923664122136,-0.3058470764617691,-0.019490254872563718,0.17391304347826086,101.18253490232567,31.927452673111112,2024-09-20 14:45:23.357055744+02:00
1726836323376.587,3.4782608695652173,3.141304347826087,11.141304347826086,2.0,2.047619047619048,488.37209302325584,-7.49618320610687,1.2213740458015268,1.3740458015267174,-0.3028485757121439,-0.02848575712143928,0.18140929535232383,101.18528545832777,31.927452673111112,2024-09-20 14:45:23.376587008+02:00
1726836323396.1182,3.5,3.1304347826086953,11.17391304347826,2.0,2.046153846153846,488.7218045112782,-7.603053435114504,1.2671755725190839,1.6335877862595418,-0.29535232383808097,-0.04047976011994003,0.17241379310344826,101.18253490232567,31.927452673111112,2024-09-20 14:45:23.396118272+02:00
1726836323415.6494,3.467391304347826,3.152173913043478,11.119565217391305,2.0,2.047619047619048,488.37209302325584,-7.419847328244274,0.9312977099236641,1.5572519083969465,-0.3028485757121439,-0.037481259370314844,0.17691154422788605,101.17703379813044,31.927452673111112,2024-09-20 14:45:23.415649536+02:00
1726836323435.181,3.5652173913043477,3.1630434782608696,11.184782608695652,2.0,2.046153846153846,488.7218045112782,-7.251908396946565,0.9618320610687022,1.648854961832061,-0.2983508245877061,-0.017991004497751123,0.17541229385307347,101.18253490232567,31.927452673111112,2024-09-20 14:45:23.435180800+02:00
1726836323454.712,3.510869565217391,3.152173913043478,11.141304347826086,2.0,2.046153846153846,488.7218045112782,-7.587786259541985,1.114503816793893,1.648854961832061,-0.3073463268365817,-0.031484257871064465,0.17691154422788605,101.17978434892655,31.927452673111112,2024-09-20 14:45:23.454711808+02:00
1726836323474.2432,3.467391304347826,3.152173913043478,11.195652173913043,2.0,2.046153846153846,488.7218045112782,-7.465648854961832,1.0229007633587786,1.7404580152671756,-0.2983508245877061,-0.0239880059970015,0.17841079460269865,101.18528545832777,31.927452673111112,2024-09-20 14:45:23.474243072+02:00
1726836323493.7744,3.467391304347826,3.108695652173913,11.16304347826087,2.0,2.046153846153846,488.7218045112782,-7.633587786259541,0.916030534351145,2.0763358778625953,-0.3073463268365817,-0.022488755622188904,0.17841079460269865,101.18613787374532,31.932508603861788,2024-09-20 14:45:23.493774336+02:00
1726836323513.3057,3.5,3.141304347826087,11.17391304347826,2.0,2.046153846153846,488.7218045112782,-7.679389312977099,1.0381679389312977,1.7251908396946565,-0.3103448275862069,-0.022488755622188904,0.17091454272863568,101.18888845467883,31.932508603861788,2024-09-20 14:45:23.513305600+02:00
1726836323532.837,3.4782608695652173,3.119565217391304,11.152173913043478,2.0,2.046153846153846,488.7218045112782,-7.801526717557252,0.9770992366412213,1.83206106870229,-0.3058470764617691,-0.034482758620689655,0.16941529235382308,101.1806367196874,31.932508603861788,2024-09-20 14:45:23.532836864+02:00
1726836323552.3682,3.5,3.141304347826087,11.16304347826087,2.0,2.046153846153846,488.7218045112782,-7.068702290076335,0.9770992366412213,1.5572519083969465,-0.3073463268365817,-0.034482758620689655,0.17391304347826086,101.18338729541485,31.932508603861788,2024-09-20 14:45:23.552368128+02:00
1726836323571.8994,3.532608695652174,3.152173913043478,11.152173913043478,2.0,2.0446886446886445,489.0720171981369,-7.511450381679389,0.22900763358778625,1.2671755725190839,-0.3058470764617691,-0.037481259370314844,0.17241379310344826,101.18613787374532,31.932508603861788,2024-09-20 14:45:23.571899392+02:00
1726836323591.431,3.5,3.141304347826087,11.17391304347826,2.0,2.046153846153846,488.7218045112782,-7.419847328244274,0.7175572519083969,1.8625954198473282,-0.3028485757121439,-0.005997001499250375,0.17391304347826086,101.18338729541485,31.932508603861788,2024-09-20 14:45:23.591430912+02:00
1726836323610.962,3.5,3.1304347826086953,11.184782608695652,2.0,2.046153846153846,488.7218045112782,-7.251908396946565,0.549618320610687,1.8015267175572518,-0.3043478260869565,-0.037481259370314844,0.17991004497751123,101.18338729541485,31.932508603861788,2024-09-20 14:45:23.610961920+02:00
1726836323630.4932,3.4891304347826084,3.152173913043478,11.16304347826087,2.0,2.046153846153846,488.7218045112782,-7.435114503816793,1.0076335877862594,1.8015267175572518,-0.3028485757121439,-0.02848575712143928,0.17241379310344826,101.17788614656298,31.932508603861788,2024-09-20 14:45:23.630493184+02:00
1726836323650.0244,3.5,3.152173913043478,11.195652173913043,2.0,2.0446886446886445,489.0720171981369,-7.6183206106870225,1.0076335877862594,1.4961832061068703,-0.2983508245877061,-0.0239880059970015,0.1664167916041979,101.18613787374532,31.932508603861788,2024-09-20 14:45:23.650024448+02:00
1726836323669.5557,3.5217391304347827,3.141304347826087,11.152173913043478,2.0,2.0446886446886445,489.0720171981369,-7.66412213740458,0.9007633587786259,1.2671755725190839,-0.29985007496251875,-0.020989505247376312,0.17691154422788605,101.18888845467883,31.932508603861788,2024-09-20 14:45:23.669555712+02:00
1726836323689.087,3.4782608695652173,3.119565217391304,11.152173913043478,2.0,2.046153846153846,488.7218045112782,-7.374045801526718,1.1450381679389312,1.5114503816793892,-0.30134932533733133,-0.02848575712143928,0.17991004497751123,101.19438962435493,31.932508603861788,2024-09-20 14:45:23.689086976+02:00
1726836323708.6182,3.4782608695652173,3.141304347826087,11.17391304347826,2.0,2.046153846153846,488.7218045112782,-7.541984732824427,1.0076335877862594,1.5877862595419847,-0.2983508245877061,-0.02848575712143928,0.17541229385307347,101.18613787374532,31.932508603861788,2024-09-20 14:45:23.708618240+02:00
1726836323728.1494,3.4891304347826084,3.152173913043478,11.184782608695652,2.0,2.046153846153846,488.7218045112782,-7.175572519083969,1.0687022900763359,1.465648854961832,-0.3043478260869565,-0.037481259370314844,0.17241379310344826,101.17788614656298,31.932508603861788,2024-09-20 14:45:23.728149504+02:00
1726836323747.681,3.4891304347826084,3.152173913043478,11.16304347826087,2.0,2.0446886446886445,489.0720171981369,-7.190839694656488,0.6412213740458015,1.2366412213740459,-0.3043478260869565,-0.004497751124437781,0.17691154422788605,101.18613787374532,31.932508603861788,2024-09-20 14:45:23.747681024+02:00
1726836323767.212,3.532608695652174,3.119565217391304,11.17391304347826,2.0,2.046153846153846,488.7218045112782,-7.526717557251908,1.0534351145038168,1.5419847328244274,-0.29535232383808097,-0.031484257871064465,0.17691154422788605,101.18613787374532,31.932508603861788,2024-09-20 14:45:23.767212032+02:00
1726836323786.7432,3.5,3.152173913043478,11.16304347826087,2.0,2.046153846153846,488.7218045112782,-7.32824427480916,0.8702290076335878,1.5725190839694656,-0.29985007496251875,-0.0239880059970015,0.17991004497751123,101.18338729541485,31.932508603861788,2024-09-20 14:45:23.786743040+02:00
1726836323806.2744,3.5,3.119565217391304,11.141304347826086,2.0,2.046153846153846,488.7218045112782,-7.526717557251908,0.9770992366412213,1.5114503816793892,-0.3073463268365817,-0.02848575712143928,0.17541229385307347,101.18338729541485,31.932508603861788,2024-09-20 14:45:23.806274304+02:00
1726836323825.8057,3.4891304347826084,3.1304347826086953,11.184782608695652,2.0,2.046153846153846,488.7218045112782,-7.312977099236641,0.7175572519083969,2.015267175572519,-0.3073463268365817,-0.022488755622188904,0.1829085457271364,101.19163903821536,31.932508603861788,2024-09-20 14:45:23.825805568+02:00
1726836323845.337,3.467391304347826,3.141304347826087,11.17391304347826,2.0,2.046153846153846,488.7218045112782,-7.236641221374046,0.916030534351145,1.7709923664122136,-0.2983508245877061,-0.0239880059970015,0.1619190404797601,101.18338729541485,31.932508603861788,2024-09-20 14:45:23.845336832+02:00
1726836323864.8682,3.4891304347826084,3.119565217391304,11.141304347826086,2.0,2.046153846153846,488.7218045112782,-7.709923664122137,0.6870229007633587,1.618320610687023,-0.3073463268365817,-0.022488755622188904,0.18440779610194902,101.18613787374532,31.932508603861788,2024-09-20 14:45:23.864868096+02:00
1726836323884.3994,3.4891304347826084,3.119565217391304,11.26086956521739,2.0,2.046153846153846,488.7218045112782,-7.190839694656488,0.916030534351145,2.0610687022900764,-0.29685157421289354,-0.020989505247376312,0.17091454272863568,101.18338729541485,31.932508603861788,2024-09-20 14:45:23.884399360+02:00
1726836323903.931,3.5,3.152173913043478,11.130434782608695,2.0,2.046153846153846,488.7218045112782,-7.633587786259541,0.4580152671755725,1.5419847328244274,-0.29535232383808097,-0.04047976011994003,0.17691154422788605,101.18613787374532,31.932508603861788,2024-09-20 14:45:23.903930880+02:00
1726836323923.462,3.510869565217391,3.1304347826086953,11.206521739130434,2.0,2.0446886446886445,489.0720171981369,-7.206106870229007,0.3053435114503817,1.5877862595419847,-0.3028485757121439,-0.041979010494752625,0.17691154422788605,101.18613787374532,31.932508603861788,2024-09-20 14:45:23.923461888+02:00
1726836323942.9932,3.510869565217391,3.141304347826087,11.17391304347826,2.0,2.046153846153846,488.7218045112782,-7.435114503816793,0.8854961832061068,1.5725190839694656,-0.29685157421289354,-0.026986506746626684,0.17691154422788605,101.18338729541485,31.932508603861788,2024-09-20 14:45:23.942993152+02:00
1726836323962.5244,3.4782608695652173,3.141304347826087,11.16304347826087,2.0,2.046153846153846,488.7218045112782,-7.038167938931298,0.549618320610687,1.2213740458015268,-0.3073463268365817,-0.035982008995502246,0.18140929535232383,101.17788614656298,31.932508603861788,2024-09-20 14:45:23.962524416+02:00
1726836323982.0557,3.532608695652174,3.1304347826086953,11.16304347826087,2.0,2.046153846153846,488.7218045112782,-7.6183206106870225,0.9923664122137404,1.5267175572519083,-0.3118440779610195,-0.026986506746626684,0.17691154422788605,101.18338729541485,31.932508603861788,2024-09-20 14:45:23.982055680+02:00
1726836324001.587,3.510869565217391,3.1304347826086953,11.130434782608695,2.0,2.046153846153846,488.7218045112782,-7.236641221374046,0.7480916030534351,1.7404580152671756,-0.2983508245877061,-0.031484257871064465,0.18140929535232383,101.19163903821536,31.932508603861788,2024-09-20 14:45:24.001586944+02:00
1726836324021.1182,3.4782608695652173,3.141304347826087,11.17391304347826,2.0,2.046153846153846,488.7218045112782,-7.419847328244274,0.5190839694656488,1.450381679389313,-0.29535232383808097,-0.008995502248875561,0.16941529235382308,101.18613787374532,31.932508603861788,2024-09-20 14:45:24.021118208+02:00
1726836324040.6494,3.510869565217391,3.1739130434782608,11.184782608695652,2.0,2.046153846153846,488.7218045112782,-7.480916030534351,0.564885496183206,1.8778625954198473,-0.3043478260869565,-0.026986506746626684,0.17391304347826086,101.18338729541485,31.932508603861788,2024-09-20 14:45:24.040649472+02:00
1726836324060.181,3.4891304347826084,3.1304347826086953,11.152173913043478,2.0,2.046153846153846,488.7218045112782,-7.648854961832061,0.6259541984732824,2.045801526717557,-0.3058470764617691,-0.0239880059970015,0.17691154422788605,101.18338729541485,31.932508603861788,2024-09-20 14:45:24.060180992+02:00
1726836324079.712,3.5,3.119565217391304,11.195652173913043,2.0,2.047619047619048,488.37209302325584,-7.435114503816793,0.48854961832061067,1.3740458015267174,-0.30134932533733133,-0.02848575712143928,0.17241379310344826,101.18338729541485,31.932508603861788,2024-09-20 14:45:24.079712+02:00
1726836324099.2432,3.4891304347826084,3.1630434782608696,11.16304347826087,2.0,2.046153846153846,488.7218045112782,-7.267175572519084,0.13740458015267176,1.5267175572519083,-0.29985007496251875,-0.038980509745127435,0.1664167916041979,101.18338729541485,31.932508603861788,2024-09-20 14:45:24.099243264+02:00
1726836324118.7744,3.5760869565217392,3.1304347826086953,11.152173913043478,2.0,2.046153846153846,488.7218045112782,-7.374045801526718,0.5954198473282443,1.6793893129770991,-0.3103448275862069,-0.029985007496251874,0.17841079460269865,101.1806367196874,31.932508603861788,2024-09-20 14:45:24.118774528+02:00
1726836324138.3057,3.5,3.152173913043478,11.17391304347826,2.0,2.046153846153846,488.7218045112782,-7.435114503816793,0.9923664122137404,1.465648854961832,-0.3103448275862069,-0.031484257871064465,0.17541229385307347,101.17788614656298,31.932508603861788,2024-09-20 14:45:24.138305792+02:00
1726836324157.837,3.510869565217391,3.141304347826087,11.17391304347826,2.0,2.047619047619048,488.37209302325584,-7.694656488549618,1.3893129770992365,1.7862595419847327,-0.3043478260869565,-0.031484257871064465,0.17091454272863568,101.18613787374532,31.932508603861788,2024-09-20 14:45:24.157836800+02:00
1726836324177.3682,3.4565217391304346,3.141304347826087,11.228260869565217,2.0,2.046153846153846,488.7218045112782,-7.557251908396946,0.732824427480916,1.450381679389313,-0.30134932533733133,-0.020989505247376312,0.17391304347826086,101.1806367196874,31.932508603861788,2024-09-20 14:45:24.177368064+02:00
1726836324196.8994,3.4891304347826084,3.0978260869565215,11.152173913043478,2.0,2.046153846153846,488.7218045112782,-7.770992366412213,-0.21374045801526717,1.8778625954198473,-0.3058470764617691,-0.02848575712143928,0.17391304347826086,101.18338729541485,31.932508603861788,2024-09-20 14:45:24.196899328+02:00
1726836324216.431,3.4782608695652173,3.152173913043478,11.152173913043478,2.0,2.047619047619048,488.37209302325584,-6.870229007633587,-0.3511450381679389,1.8625954198473282,-0.2983508245877061,-0.029985007496251874,0.17391304347826086,101.18338729541485,31.932508603861788,2024-09-20 14:45:24.216430848+02:00
1726836324235.962,3.5978260869565215,3.1739130434782608,11.097826086956522,2.0,2.046153846153846,488.7218045112782,-7.190839694656488,0.7633587786259541,1.7862595419847327,-0.3043478260869565,-0.026986506746626684,0.1679160419790105,101.17788614656298,31.932508603861788,2024-09-20 14:45:24.235961856+02:00
1726836324255.4932,3.5543478260869565,3.108695652173913,11.195652173913043,2.0,2.046153846153846,488.7218045112782,-7.770992366412213,1.5877862595419847,1.8473282442748091,-0.30134932533733133,-0.03298350824587706,0.1889055472263868,101.18613787374532,31.932508603861788,2024-09-20 14:45:24.255493120+02:00
1726836324275.0244,3.4891304347826084,3.1630434782608696,11.184782608695652,2.0,2.046153846153846,488.7218045112782,-7.297709923664121,1.5725190839694656,1.129770992366412,-0.2983508245877061,-0.031484257871064465,0.1679160419790105,101.18338729541485,31.932508603861788,2024-09-20 14:45:24.275024384+02:00
1726836324294.5557,3.543478260869565,3.141304347826087,11.184782608695652,2.0,2.046153846153846,488.7218045112782,-7.709923664122137,1.2061068702290076,1.7404580152671756,-0.3043478260869565,-0.03298350824587706,0.17541229385307347,101.18338729541485,31.932508603861788,2024-09-20 14:45:24.294555648+02:00
1726836324314.087,3.5543478260869565,3.141304347826087,11.184782608695652,2.0,2.046153846153846,488.7218045112782,-7.404580152671755,1.3282442748091603,1.6335877862595418,-0.30134932533733133,-0.026986506746626684,0.16941529235382308,101.18338729541485,31.932508603861788,2024-09-20 14:45:24.314086912+02:00
1726836324333.6182,3.4456521739130435,3.1630434782608696,11.17391304347826,2.0,2.046153846153846,488.7218045112782,-7.557251908396946,0.6564885496183206,1.9236641221374045,-0.3058470764617691,-0.020989505247376312,0.1664167916041979,101.1806367196874,31.932508603861788,2024-09-20 14:45:24.333618176+02:00
1726836324353.1494,3.3152173913043477,3.152173913043478,11.17391304347826,2.0,2.046153846153846,488.7218045112782,-6.977099236641221,-0.5343511450381679,2.3206106870229006,-0.3058470764617691,-0.025487256371814093,0.17391304347826086,101.17788614656298,31.932508603861788,2024-09-20 14:45:24.353149440+02:00
1726836324372.681,3.5760869565217392,3.1630434782608696,11.184782608695652,2.0,2.046153846153846,488.7218045112782,-6.641221374045801,-1.8931297709923662,2.900763358778626,-0.3043478260869565,-0.029985007496251874,0.17991004497751123,101.18888845467883,31.932508603861788,2024-09-20 14:45:24.372680960+02:00
1726836324392.212,3.5978260869565215,3.1630434782608696,11.108695652173912,2.0,2.046153846153846,488.7218045112782,-6.2748091603053435,-1.9694656488549618,3.32824427480916,-0.3043478260869565,-0.031484257871064465,0.17391304347826086,101.18338729541485,31.932508603861788,2024-09-20 14:45:24.392211968+02:00
1726836324411.7432,3.5978260869565215,3.1630434782608696,11.152173913043478,2.0,2.046153846153846,488.7218045112782,-6.458015267175572,-0.4427480916030534,3.4198473282442747,-0.30134932533733133,-0.038980509745127435,0.18140929535232383,101.1806367196874,31.932508603861788,2024-09-20 14:45:24.411743232+02:00
1726836324431.2744,3.619565217391304,3.119565217391304,11.119565217391305,2.0,2.046153846153846,488.7218045112782,-6.900763358778626,0.5343511450381679,3.312977099236641,-0.3043478260869565,-0.035982008995502246,0.17241379310344826,101.18338729541485,31.932508603861788,2024-09-20 14:45:24.431274496+02:00
1726836324450.8057,3.532608695652174,3.1630434782608696,11.130434782608695,2.0,2.046153846153846,488.7218045112782,-7.32824427480916,1.9694656488549618,2.8396946564885495,-0.3028485757121439,-0.037481259370314844,0.17091454272863568,101.18338729541485,31.932508603861788,2024-09-20 14:45:24.450805760+02:00
1726836324470.337,3.5760869565217392,3.1630434782608696,11.184782608695652,2.0,2.046153846153846,488.7218045112782,-8.442748091603054,3.129770992366412,2.4732824427480917,-0.3073463268365817,-0.03298350824587706,0.17541229385307347,101.1806367196874,31.932508603861788,2024-09-20 14:45:24.470337024+02:00
1726836324489.8682,3.5652173913043477,3.1739130434782608,11.108695652173912,2.0,2.046153846153846,488.7218045112782,-9.267175572519083,3.32824427480916,1.8473282442748091,-0.3058470764617691,-0.022488755622188904,0.17391304347826086,101.17893198095638,31.922396742651472,2024-09-20 14:45:24.489868288+02:00
1726836324509.3994,3.510869565217391,3.152173913043478,11.119565217391305,2.0,2.046153846153846,488.7218045112782,-9.587786259541984,5.099236641221374,2.1526717557251906,-0.3073463268365817,-0.0239880059970015,0.17091454272863568,101.18443304570097,31.922396742651472,2024-09-20 14:45:24.509399296+02:00
1726836324528.931,3.434782608695652,3.1739130434782608,11.184782608695652,2.0,2.046153846153846,488.7218045112782,-9.206106870229007,3.5725190839694654,2.3206106870229006,-0.30134932533733133,-0.02848575712143928,0.17991004497751123,101.18718358197768,31.922396742651472,2024-09-20 14:45:24.528930816+02:00
1726836324548.462,3.4565217391304346,3.108695652173913,11.195652173913043,2.0,2.046153846153846,488.7218045112782,-10.091603053435113,4.183206106870228,2.687022900763359,-0.29535232383808097,-0.010494752623688156,0.18140929535232383,101.17618145248849,31.922396742651472,2024-09-20 14:45:24.548461824+02:00
1726836324567.9932,3.5760869565217392,3.0978260869565215,11.195652173913043,2.0,2.046153846153846,488.7218045112782,-9.31297709923664,4.549618320610687,2.8244274809160306,-0.3073463268365817,-0.029985007496251874,0.1679160419790105,101.17893198095638,31.922396742651472,2024-09-20 14:45:24.567993088+02:00
1726836324587.5244,3.4565217391304346,3.1304347826086953,11.141304347826086,2.0,2.046153846153846,488.7218045112782,-9.099236641221374,3.969465648854962,1.9541984732824427,-0.29685157421289354,-0.029985007496251874,0.17241379310344826,101.17893198095638,31.922396742651472,2024-09-20 14:45:24.587524352+02:00
1726836324607.0557,3.402173913043478,3.1304347826086953,11.195652173913043,2.0,2.046153846153846,488.7218045112782,-8.351145038167939,3.9083969465648853,2.519083969465649,-0.3073463268365817,-0.025487256371814093,0.17691154422788605,101.18718358197768,31.922396742651472,2024-09-20 14:45:24.607055616+02:00
1726836324626.587,3.358695652173913,3.108695652173913,11.17391304347826,2.0,2.046153846153846,488.7218045112782,-7.893129770992366,1.465648854961832,2.7022900763358777,-0.29685157421289354,-0.01649175412293853,0.1649175412293853,101.18443304570097,31.922396742651472,2024-09-20 14:45:24.626586880+02:00
1726836324646.1182,3.4565217391304346,3.0760869565217392,11.206521739130434,2.0,2.046153846153846,488.7218045112782,-7.908396946564885,1.4809160305343512,3.16030534351145,-0.3028485757121439,-0.037481259370314844,0.17541229385307347,101.18718358197768,31.922396742651472,2024-09-20 14:45:24.646118144+02:00
1726836324665.6494,3.532608695652174,3.119565217391304,11.16304347826087,2.0,2.046153846153846,488.7218045112782,-7.312977099236641,0.9770992366412213,2.183206106870229,-0.29985007496251875,-0.019490254872563718,0.17541229385307347,101.18168251202718,31.922396742651472,2024-09-20 14:45:24.665649408+02:00
1726836324685.181,3.4456521739130435,3.0869565217391304,11.152173913043478,2.0,2.047619047619048,488.37209302325584,-7.66412213740458,1.7404580152671756,2.1068702290076335,-0.3058470764617691,-0.014992503748125937,0.17991004497751123,101.17893198095638,31.922396742651472,2024-09-20 14:45:24.685180928+02:00
1726836324704.712,3.434782608695652,3.119565217391304,11.217391304347826,2.0,2.047619047619048,488.37209302325584,-7.374045801526718,1.8625954198473282,1.9236641221374045,-0.30134932533733133,-0.029985007496251874,0.1664167916041979,101.17893198095638,31.922396742651472,2024-09-20 14:45:24.704711936+02:00
1726836324724.2432,3.4239130434782608,3.108695652173913,11.195652173913043,2.0,2.046153846153846,488.7218045112782,-7.572519083969465,1.984732824427481,1.8625954198473282,-0.3043478260869565,-0.014992503748125937,0.16941529235382308,101.18443304570097,31.922396742651472,2024-09-20 14:45:24.724243200+02:00
1726836324743.7744,3.402173913043478,3.0760869565217392,11.184782608695652,2.0,2.046153846153846,488.7218045112782,-7.8473282442748085,1.3587786259541985,2.015267175572519,-0.30134932533733133,-0.026986506746626684,0.1679160419790105,101.17893198095638,31.922396742651472,2024-09-20 14:45:24.743774464+02:00
1726836324763.3057,3.5217391304347827,3.108695652173913,11.228260869565217,2.0,2.047619047619048,488.37209302325584,-7.679389312977099,1.5419847328244274,1.7557251908396947,-0.29535232383808097,-0.026986506746626684,0.16941529235382308,101.18168251202718,31.922396742651472,2024-09-20 14:45:24.763305728+02:00
1726836324782.837,3.467391304347826,3.0760869565217392,11.130434782608695,2.0,2.047619047619048,488.37209302325584,-8.213740458015266,1.648854961832061,1.6946564885496183,-0.29985007496251875,-0.026986506746626684,0.17991004497751123,101.17893198095638,31.922396742651472,2024-09-20 14:45:24.782836992+02:00
1726836324802.3682,3.467391304347826,3.0760869565217392,11.130434782608695,2.0,2.047619047619048,488.37209302325584,-7.801526717557252,2.5038167938931295,1.4351145038167938,-0.29985007496251875,-0.03298350824587706,0.1649175412293853,101.18168251202718,31.922396742651472,2024-09-20 14:45:24.802368256+02:00
1726836324821.8994,3.402173913043478,3.0652173913043477,11.16304347826087,2.0,2.049084249084249,488.0228816589203,-8.213740458015266,1.6946564885496183,1.114503816793893,-0.29985007496251875,-0.031484257871064465,0.16941529235382308,101.18168251202718,31.922396742651472,2024-09-20 14:45:24.821899520+02:00
1726836324841.431,3.4239130434782608,3.119565217391304,11.195652173913043,2.0,2.047619047619048,488.37209302325584,-7.7251908396946565,1.0381679389312977,1.129770992366412,-0.30134932533733133,-0.019490254872563718,0.17241379310344826,101.18168251202718,31.922396742651472,2024-09-20 14:45:24.841430784+02:00
1726836324860.962,3.4130434782608696,3.0869565217391304,11.17391304347826,2.0,2.047619047619048,488.37209302325584,-7.648854961832061,0.7480916030534351,1.618320610687023,-0.3118440779610195,-0.022488755622188904,0.1829085457271364,101.18168251202718,31.922396742651472,2024-09-20 14:45:24.860961792+02:00
1726836324880.4932,3.4456521739130435,3.119565217391304,11.195652173913043,2.0,2.049084249084249,488.0228816589203,-7.587786259541985,0.48854961832061067,1.3587786259541985,-0.3073463268365817,-0.017991004497751123,0.17091454272863568,101.18443304570097,31.922396742651472,2024-09-20 14:45:24.880493056+02:00
1726836324900.0244,3.434782608695652,3.0760869565217392,11.195652173913043,2.0,2.049084249084249,488.0228816589203,-7.938931297709924,0.41221374045801523,1.5877862595419847,-0.29535232383808097,-0.0239880059970015,0.17541229385307347,101.18168251202718,31.922396742651472,2024-09-20 14:45:24.900024320+02:00
1726836324919.5557,3.434782608695652,3.108695652173913,11.206521739130434,2.0,2.047619047619048,488.37209302325584,-7.435114503816793,0.21374045801526717,1.3129770992366412,-0.2983508245877061,-0.037481259370314844,0.17541229385307347,101.18168251202718,31.922396742651472,2024-09-20 14:45:24.919555584+02:00
1726836324939.087,3.434782608695652,3.108695652173913,11.206521739130434,2.0,2.049084249084249,488.0228816589203,-7.755725190839694,-0.12213740458015267,1.450381679389313,-0.29685157421289354,-0.0074962518740629685,0.17841079460269865,101.17893198095638,31.922396742651472,2024-09-20 14:45:24.939086848+02:00
1726836324958.6182,3.4130434782608696,3.0869565217391304,11.17391304347826,2.0,2.049084249084249,488.0228816589203,-7.801526717557252,-0.4427480916030534,1.8473282442748091,-0.3103448275862069,-0.02848575712143928,0.17541229385307347,101.18718358197768,31.922396742651472,2024-09-20 14:45:24.958618112+02:00
1726836324978.1494,3.4239130434782608,3.108695652173913,11.152173913043478,2.0,2.049084249084249,488.0228816589203,-7.374045801526718,-0.5038167938931297,1.7251908396946565,-0.2983508245877061,-0.022488755622188904,0.1679160419790105,101.17618145248849,31.922396742651472,2024-09-20 14:45:24.978149376+02:00
1726836324997.681,3.4891304347826084,3.0978260869565215,11.130434782608695,2.0,2.0505494505494504,487.67416934619513,-7.083969465648854,-0.9770992366412213,2.045801526717557,-0.2983508245877061,-0.0239880059970015,0.17391304347826086,101.17893198095638,31.922396742651472,2024-09-20 14:45:24.997680896+02:00
1726836325017.212,3.5543478260869565,3.0652173913043477,11.304347826086957,2.0,2.0505494505494504,487.67416934619513,-7.786259541984733,-1.3129770992366412,2.2748091603053435,-0.3058470764617691,-0.0239880059970015,0.17241379310344826,101.18168251202718,31.922396742651472,2024-09-20 14:45:25.017211904+02:00
1726836325036.7432,3.434782608695652,3.119565217391304,11.293478260869565,2.0,2.0505494505494504,487.67416934619513,-7.007633587786259,0.8702290076335878,1.9541984732824427,-0.3073463268365817,-0.025487256371814093,0.17241379310344826,101.18443304570097,31.922396742651472,2024-09-20 14:45:25.036743168+02:00
1726836325056.2744,3.532608695652174,3.152173913043478,10.934782608695652,2.0,2.052014652014652,487.32595501606573,-7.068702290076335,-1.450381679389313,0.7786259541984732,-0.3088455772113943,-0.020989505247376312,0.17691154422788605,101.17893198095638,31.922396742651472,2024-09-20 14:45:25.056274432+02:00
1726836325075.8057,3.510869565217391,2.9891304347826084,11.315217391304348,2.0,2.052014652014652,487.32595501606573,-7.816793893129771,0.9770992366412213,2.8702290076335877,-0.2983508245877061,-0.026986506746626684,0.17391304347826086,101.18443304570097,31.922396742651472,2024-09-20 14:45:25.075805696+02:00
1726836325095.337,3.4239130434782608,3.1739130434782608,11.08695652173913,2.0,2.052014652014652,487.32595501606573,-7.6183206106870225,0.5343511450381679,1.129770992366412,-0.3043478260869565,-0.025487256371814093,0.17241379310344826,101.18443304570097,31.922396742651472,2024-09-20 14:45:25.095336960+02:00
1726836325114.8682,3.4782608695652173,3.108695652173913,11.25,2.0,2.052014652014652,487.32595501606573,-6.99236641221374,0.0916030534351145,0.9465648854961831,-0.3058470764617691,-0.026986506746626684,0.1649175412293853,101.18168251202718,31.922396742651472,2024-09-20 14:45:25.114868224+02:00
1726836325134.3994,3.543478260869565,3.108695652173913,11.119565217391305,2.0,2.052014652014652,487.32595501606573,-7.7251908396946565,0.015267175572519083,1.6030534351145038,-0.3088455772113943,-0.02848575712143928,0.17241379310344826,101.18443304570097,31.922396742651472,2024-09-20 14:45:25.134399488+02:00
1726836325153.931,3.5,3.108695652173913,11.217391304347826,2.0,2.0534798534798533,486.9782376025687,-6.99236641221374,0.1984732824427481,1.8625954198473282,-0.3043478260869565,-0.031484257871064465,0.1679160419790105,101.17893198095638,31.922396742651472,2024-09-20 14:45:25.153931008+02:00
1726836325173.462,3.4456521739130435,3.0978260869565215,11.17391304347826,2.0,2.0534798534798533,486.9782376025687,-8.183206106870228,1.5572519083969465,1.9389312977099236,-0.3088455772113943,-0.020989505247376312,0.17991004497751123,101.18168251202718,31.922396742651472,2024-09-20 14:45:25.173462016+02:00
1726836325192.9932,3.4239130434782608,3.108695652173913,11.195652173913043,2.0,2.0534798534798533,486.9782376025687,-7.419847328244274,1.114503816793893,1.4809160305343512,-0.3073463268365817,-0.01649175412293853,0.17541229385307347,101.18443304570097,31.922396742651472,2024-09-20 14:45:25.192993280+02:00
