Shimmer_8280_Timestamp_Unix_CAL,Shimmer_8280_Accel_LN_X_CAL,Shimmer_8280_Accel_LN_Y_CAL,Shimmer_8280_Accel_LN_Z_CAL,Shimmer_8280_GSR_Range_CAL,Shimmer_8280_GSR_Skin_Conductance_CAL,Shimmer_8280_GSR_Skin_Resistance_CAL,Shimmer_8280_Gyro_X_CAL,Shimmer_8280_Gyro_Y_CAL,Shimmer_8280_Gyro_Z_CAL,Shimmer_8280_Mag_X_CAL,Shimmer_8280_Mag_Y_CAL,Shimmer_8280_Mag_Z_CAL,Shimmer_8280_Pressure_BMP280_CAL,Shimmer_8280_Temperature_BMP280_CAL,adjusted_time
1726835746634.43,2.5978260869565215,2.5978260869565215,11.282608695652174,2.0,2.6791208791208785,373.2567678424939,-7.129770992366412,1.2213740458015268,1.816793893129771,-0.2773613193403298,-0.0014992503748125937,0.14392803598200898,99.654765593376,22.25598996282206,2024-09-20 14:35:46.634429952+02:00
1726835746653.9612,2.5978260869565215,2.5869565217391304,11.326086956521738,2.0,2.6791208791208785,373.2567678424939,-7.465648854961832,1.3893129770992365,2.015267175572519,-0.2833583208395802,-0.008995502248875561,0.12743628185907047,99.654765593376,22.25598996282206,2024-09-20 14:35:46.653961216+02:00
1726835746673.4924,2.5869565217391304,2.5869565217391304,11.293478260869565,0.0,0.8200754469411211,1219.3999999999962,-7.419847328244274,1.099236641221374,1.648854961832061,-0.2848575712143928,0.0,0.136431784107946,99.65205758143905,22.25598996282206,2024-09-20 14:35:46.673492480+02:00
1726835746693.0237,2.5760869565217392,2.5543478260869565,11.33695652173913,0.0,0.8200754469411211,1219.3999999999962,-7.526717557251908,1.465648854961832,1.5572519083969465,-0.2848575712143928,-0.004497751124437781,0.13043478260869565,99.654765593376,22.25598996282206,2024-09-20 14:35:46.693023744+02:00
1726835746712.555,2.5978260869565215,2.608695652173913,11.326086956521738,0.0,0.8200754469411211,1219.3999999999962,-7.206106870229007,0.732824427480916,1.3893129770992365,-0.280359820089955,-0.010494752623688156,0.14392803598200898,99.64934957202787,22.25598996282206,2024-09-20 14:35:46.712555008+02:00
1726835746732.0862,2.5869565217391304,2.5652173913043477,11.347826086956522,0.0,0.8200754469411211,1219.3999999999962,-7.557251908396946,0.916030534351145,1.297709923664122,-0.2833583208395802,-0.005997001499250375,0.13793103448275862,99.65205758143905,22.25598996282206,2024-09-20 14:35:46.732086272+02:00
1726835746751.6174,2.608695652173913,2.5978260869565215,11.293478260869565,0.0,0.8200754469411211,1219.3999999999962,-7.587786259541985,0.8396946564885496,1.450381679389313,-0.280359820089955,-0.008995502248875561,0.136431784107946,99.65205758143905,22.25598996282206,2024-09-20 14:35:46.751617536+02:00
1726835746771.1487,2.5543478260869565,2.5652173913043477,11.369565217391305,1.0,0.814284437977818,1228.0721003134793,-8.16793893129771,1.2671755725190839,1.7099236641221374,-0.2833583208395802,-0.0074962518740629685,0.13793103448275862,99.63580956285816,22.25598996282206,2024-09-20 14:35:46.771148800+02:00
1726835746790.68,2.5869565217391304,2.619565217391304,11.315217391304348,1.0,0.814284437977818,1228.0721003134793,-7.541984732824427,1.4809160305343512,1.5572519083969465,-0.2773613193403298,-0.004497751124437781,0.1409295352323838,99.64664156514243,22.25598996282206,2024-09-20 14:35:46.790679808+02:00
1726835746810.2112,2.5978260869565215,2.5869565217391304,11.33695652173913,1.0,0.814284437977818,1228.0721003134793,-8.15267175572519,2.1221374045801524,1.4198473282442747,-0.280359820089955,0.0,0.136431784107946,99.65205758143905,22.25598996282206,2024-09-20 14:35:46.810211072+02:00
1726835746829.7424,2.5543478260869565,2.5652173913043477,11.326086956521738,1.0,0.814284437977818,1228.0721003134793,-8.13740458015267,2.900763358778626,1.297709923664122,-0.27586206896551724,0.008995502248875561,0.136431784107946,99.64393356078274,22.25598996282206,2024-09-20 14:35:46.829742336+02:00
1726835746849.2737,2.880434782608696,2.641304347826087,11.326086956521738,1.0,0.814284437977818,1228.0721003134793,-8.702290076335878,4.3206106870229,1.083969465648855,-0.2818590704647676,-0.0074962518740629685,0.13343328335832083,99.65205758143905,22.25598996282206,2024-09-20 14:35:46.849273600+02:00
1726835746868.805,2.3152173913043477,2.510869565217391,11.326086956521738,2.0,0.810989010989011,1233.0623306233063,-10.50381679389313,5.816793893129771,-0.2748091603053435,-0.2848575712143928,-0.010494752623688156,0.1394302848575712,99.65205758143905,22.25598996282206,2024-09-20 14:35:46.868804864+02:00
1726835746888.3362,2.3369565217391304,2.5760869565217392,11.304347826086957,2.0,0.810989010989011,1233.0623306233063,-8.870229007633588,3.5877862595419847,0.0,-0.2788605697151424,-0.013493253373313342,0.1409295352323838,99.64934957202787,22.25598996282206,2024-09-20 14:35:46.888336128+02:00
1726835746907.8674,2.510869565217391,2.532608695652174,11.347826086956522,2.0,0.810989010989011,1233.0623306233063,-8.778625954198473,1.7251908396946565,0.6717557251908397,-0.2773613193403298,-0.005997001499250375,0.13043478260869565,99.64393356078274,22.25598996282206,2024-09-20 14:35:46.907867392+02:00
1726835746927.3987,2.7717391304347827,2.5869565217391304,11.369565217391305,2.0,0.810989010989011,1233.0623306233063,-8.106870229007633,0.4580152671755725,1.1450381679389312,-0.2788605697151424,-0.01199400299850075,0.1409295352323838,99.65205758143905,22.25598996282206,2024-09-20 14:35:46.927398656+02:00
1726835746946.93,2.5543478260869565,2.543478260869565,11.33695652173913,2.0,0.810989010989011,1233.0623306233063,-8.076335877862595,2.1221374045801524,1.3129770992366412,-0.2788605697151424,0.0014992503748125937,0.13343328335832083,99.64393356078274,22.25598996282206,2024-09-20 14:35:46.946929920+02:00
1726835746966.4612,2.4347826086956523,2.5869565217391304,11.304347826086957,3.0,0.8167388167388168,1224.381625441696,-6.473282442748092,1.618320610687023,1.6030534351145038,-0.27436281859070466,-0.0029985007496251873,0.13193403298350825,99.64664156514243,22.25598996282206,2024-09-20 14:35:46.966461184+02:00
1726835746985.9924,2.4239130434782608,2.510869565217391,11.358695652173912,3.0,0.8167388167388168,1224.381625441696,-6.916030534351145,1.282442748091603,2.213740458015267,-0.272863568215892,0.005997001499250375,0.12893553223388304,99.64664156514243,22.25598996282206,2024-09-20 14:35:46.985992448+02:00
1726835747005.5237,2.4565217391304346,2.5760869565217392,11.271739130434783,3.0,0.8171828171828173,1223.7163814180929,-7.007633587786259,-0.015267175572519083,1.9389312977099236,-0.2863568215892054,-0.0029985007496251873,0.13343328335832083,99.65205758143905,22.25598996282206,2024-09-20 14:35:47.005523712+02:00
1726835747025.055,2.4891304347826084,2.543478260869565,11.358695652173912,3.0,0.8171828171828173,1223.7163814180929,-6.885496183206107,-0.2595419847328244,2.1526717557251906,-0.280359820089955,0.0014992503748125937,0.13193403298350825,99.64664156514243,22.25598996282206,2024-09-20 14:35:47.025054976+02:00
1726835747044.5862,2.5652173913043477,2.5652173913043477,11.33695652173913,3.0,0.8176268176268177,1223.051859896823,-6.625954198473282,-0.916030534351145,1.9236641221374045,-0.2773613193403298,-0.01199400299850075,0.13493253373313344,99.64934957202787,22.25598996282206,2024-09-20 14:35:47.044586240+02:00
1726835747064.1174,2.5869565217391304,2.5652173913043477,11.315217391304348,3.0,0.8171828171828173,1223.7163814180929,-6.900763358778626,-0.8396946564885496,2.015267175572519,-0.2788605697151424,-0.014992503748125937,0.1409295352323838,99.65205758143905,22.25598996282206,2024-09-20 14:35:47.064117504+02:00
1726835747083.6487,2.641304347826087,2.5543478260869565,11.33695652173913,3.0,0.8176268176268177,1223.051859896823,-7.221374045801526,-0.24427480916030533,2.1374045801526718,-0.27436281859070466,-0.01199400299850075,0.1424287856071964,99.64664156514243,22.25598996282206,2024-09-20 14:35:47.083648768+02:00
1726835747103.18,2.4891304347826084,2.543478260869565,11.315217391304348,3.0,0.8176268176268177,1223.051859896823,-7.190839694656488,0.7786259541984732,1.9541984732824427,-0.27586206896551724,-0.017991004497751123,0.13193403298350825,99.64393356078274,22.25598996282206,2024-09-20 14:35:47.103180032+02:00
1726835747122.7112,2.4782608695652173,2.5652173913043477,11.315217391304348,3.0,0.8176268176268177,1223.051859896823,-6.931297709923664,0.42748091603053434,1.3740458015267174,-0.28785607196401797,0.0074962518740629685,0.13493253373313344,99.64934957202787,22.25598996282206,2024-09-20 14:35:47.122711296+02:00
1726835747142.2424,2.5217391304347827,2.532608695652174,11.33695652173913,3.0,0.8176268176268177,1223.051859896823,-7.358778625954198,0.3511450381679389,1.6335877862595418,-0.2788605697151424,-0.0029985007496251873,0.1409295352323838,99.64934957202787,22.25598996282206,2024-09-20 14:35:47.142242304+02:00
1726835747161.7737,2.5543478260869565,2.5760869565217392,11.315217391304348,3.0,0.8176268176268177,1223.051859896823,-7.32824427480916,0.42748091603053434,1.1755725190839694,-0.27586206896551724,-0.0029985007496251873,0.13193403298350825,99.64934957202787,22.25598996282206,2024-09-20 14:35:47.161773568+02:00
1726835747181.305,2.608695652173913,2.543478260869565,11.347826086956522,3.0,0.8176268176268177,1223.051859896823,-7.312977099236641,0.42748091603053434,1.2213740458015268,-0.29535232383808097,-0.005997001499250375,0.136431784107946,99.64664156514243,22.25598996282206,2024-09-20 14:35:47.181304832+02:00
1726835747200.8362,2.5978260869565215,2.5760869565217392,11.33695652173913,3.0,0.8176268176268177,1223.051859896823,-7.1603053435114505,1.0534351145038168,1.648854961832061,-0.2818590704647676,-0.005997001499250375,0.13793103448275862,99.64664156514243,22.25598996282206,2024-09-20 14:35:47.200836096+02:00
1726835747220.3674,2.5217391304347827,2.5543478260869565,11.33695652173913,3.0,0.8176268176268177,1223.051859896823,-7.221374045801526,1.1450381679389312,1.5572519083969465,-0.2773613193403298,-0.017991004497751123,0.13043478260869565,99.64393356078274,22.25598996282206,2024-09-20 14:35:47.220367360+02:00
1726835747239.8987,2.5,2.5652173913043477,11.380434782608695,3.0,0.8176268176268177,1223.051859896823,-7.206106870229007,1.2213740458015268,2.0763358778625953,-0.27586206896551724,0.0029985007496251873,0.13343328335832083,99.64934957202787,22.25598996282206,2024-09-20 14:35:47.239898624+02:00
1726835747259.43,2.4456521739130435,2.5652173913043477,11.282608695652174,3.0,0.8176268176268177,1223.051859896823,-7.129770992366412,1.1450381679389312,1.4198473282442747,-0.27436281859070466,-0.014992503748125937,0.13793103448275862,99.64393356078274,22.25598996282206,2024-09-20 14:35:47.259429888+02:00
1726835747278.9612,2.543478260869565,2.5760869565217392,11.33695652173913,3.0,0.8176268176268177,1223.051859896823,-7.312977099236641,0.4427480916030534,1.8015267175572518,-0.2788605697151424,-0.004497751124437781,0.1394302848575712,99.654765593376,22.25598996282206,2024-09-20 14:35:47.278961152+02:00
1726835747298.4924,2.5978260869565215,2.5543478260869565,11.282608695652174,3.0,0.8176268176268177,1223.051859896823,-7.648854961832061,0.07633587786259542,1.7251908396946565,-0.2773613193403298,-0.004497751124437781,0.1394302848575712,99.64664156514243,22.25598996282206,2024-09-20 14:35:47.298492416+02:00
1726835747318.0237,2.5652173913043477,2.5869565217391304,11.380434782608695,3.0,0.8176268176268177,1223.051859896823,-7.2824427480916025,0.47328244274809156,1.7099236641221374,-0.2833583208395802,0.0074962518740629685,0.136431784107946,99.64393356078274,22.25598996282206,2024-09-20 14:35:47.318023680+02:00
1726835747337.555,2.5978260869565215,2.5543478260869565,11.315217391304348,3.0,0.8171828171828173,1223.7163814180929,-7.068702290076335,0.6412213740458015,1.618320610687023,-0.2833583208395802,0.0029985007496251873,0.13193403298350825,99.6412255589488,22.25598996282206,2024-09-20 14:35:47.337554944+02:00
1726835747357.0862,2.5869565217391304,2.5543478260869565,11.326086956521738,3.0,0.8176268176268177,1223.051859896823,-6.961832061068702,0.6870229007633587,1.5725190839694656,-0.2773613193403298,0.0,0.1394302848575712,99.64664156514243,22.25598996282206,2024-09-20 14:35:47.357086208+02:00
1726835747376.6174,2.5543478260869565,2.5543478260869565,11.326086956521738,3.0,0.8176268176268177,1223.051859896823,-7.480916030534351,1.2519083969465647,1.5419847328244274,-0.280359820089955,-0.014992503748125937,0.1424287856071964,99.64393356078274,22.25598996282206,2024-09-20 14:35:47.376617472+02:00
1726835747396.1487,2.5652173913043477,2.5760869565217392,11.304347826086957,3.0,0.8176268176268177,1223.051859896823,-7.221374045801526,1.0076335877862594,1.5419847328244274,-0.280359820089955,-0.010494752623688156,0.136431784107946,99.64393356078274,22.25598996282206,2024-09-20 14:35:47.396148736+02:00
1726835747415.68,2.619565217391304,2.5543478260869565,11.41304347826087,3.0,0.8171828171828173,1223.7163814180929,-7.816793893129771,0.8549618320610687,1.6335877862595418,-0.2848575712143928,-0.010494752623688156,0.1394302848575712,99.6412255589488,22.25598996282206,2024-09-20 14:35:47.415680+02:00
1726835747435.2112,2.4347826086956523,2.5760869565217392,11.25,3.0,0.8171828171828173,1223.7163814180929,-7.480916030534351,2.2748091603053435,1.6946564885496183,-0.280359820089955,-0.005997001499250375,0.13793103448275862,99.64664156514243,22.25598996282206,2024-09-20 14:35:47.435211264+02:00
1726835747454.7424,2.5217391304347827,2.5652173913043477,11.347826086956522,3.0,0.8171828171828173,1223.7163814180929,-7.190839694656488,1.2519083969465647,1.6946564885496183,-0.2773613193403298,0.0014992503748125937,0.13493253373313344,99.64393356078274,22.25598996282206,2024-09-20 14:35:47.454742528+02:00
1726835747474.2737,2.5760869565217392,2.5543478260869565,11.304347826086957,3.0,0.8171828171828173,1223.7163814180929,-8.030534351145038,0.8396946564885496,1.6946564885496183,-0.2818590704647676,-0.0014992503748125937,0.13793103448275862,99.64664156514243,22.25598996282206,2024-09-20 14:35:47.474273792+02:00
1726835747493.805,2.5652173913043477,2.5652173913043477,11.326086956521738,3.0,0.8171828171828173,1223.7163814180929,-7.480916030534351,1.0381679389312977,1.8015267175572518,-0.28785607196401797,-0.004497751124437781,0.13193403298350825,99.6412255589488,22.25598996282206,2024-09-20 14:35:47.493805056+02:00
1726835747513.3362,2.543478260869565,2.5760869565217392,11.326086956521738,3.0,0.8171828171828173,1223.7163814180929,-7.526717557251908,1.5114503816793892,1.618320610687023,-0.2818590704647676,0.008995502248875561,0.136431784107946,99.6412255589488,22.25598996282206,2024-09-20 14:35:47.513336064+02:00
1726835747532.8674,2.4456521739130435,2.5652173913043477,11.380434782608695,3.0,0.8171828171828173,1223.7163814180929,-7.526717557251908,1.0381679389312977,1.3740458015267174,-0.27586206896551724,-0.0074962518740629685,0.1409295352323838,99.64393356078274,22.25598996282206,2024-09-20 14:35:47.532867328+02:00
1726835747552.3987,2.5217391304347827,2.5978260869565215,11.315217391304348,3.0,0.8171828171828173,1223.7163814180929,-7.465648854961832,0.4580152671755725,1.5877862595419847,-0.2788605697151424,-0.013493253373313342,0.1409295352323838,101.19122721174158,31.457252385426546,2024-09-20 14:35:47.552398592+02:00
1726835747571.93,2.5978260869565215,2.543478260869565,11.347826086956522,3.0,0.8171828171828173,1223.7163814180929,-7.480916030534351,0.549618320610687,1.8473282442748091,-0.27586206896551724,0.013493253373313342,0.12743628185907047,101.18847865152604,31.457252385426546,2024-09-20 14:35:47.571929856+02:00
1726835747591.4612,2.5543478260869565,2.5543478260869565,11.33695652173913,3.0,0.8171828171828173,1223.7163814180929,-7.480916030534351,0.6106870229007634,1.66412213740458,-0.280359820089955,0.0,0.13343328335832083,101.19397577455628,31.457252385426546,2024-09-20 14:35:47.591461120+02:00
1726835747610.9924,2.543478260869565,2.5760869565217392,11.33695652173913,3.0,0.8171828171828173,1223.7163814180929,-7.511450381679389,0.4580152671755725,1.8931297709923662,-0.2818590704647676,-0.0074962518740629685,0.1424287856071964,101.19397577455628,31.457252385426546,2024-09-20 14:35:47.610992384+02:00
1726835747630.5237,2.4891304347826084,2.5760869565217392,11.304347826086957,3.0,0.8171828171828173,1223.7163814180929,-7.648854961832061,0.8702290076335878,1.7862595419847327,-0.280359820089955,-0.005997001499250375,0.14392803598200898,101.19397577455628,31.457252385426546,2024-09-20 14:35:47.630523648+02:00
1726835747650.055,2.4782608695652173,2.5978260869565215,11.347826086956522,3.0,0.8167388167388168,1224.381625441696,-7.587786259541985,0.9007633587786259,1.9236641221374045,-0.27586206896551724,-0.004497751124437781,0.1394302848575712,101.19672433997022,31.457252385426546,2024-09-20 14:35:47.650054912+02:00
1726835747669.5862,2.5760869565217392,2.5652173913043477,11.326086956521738,3.0,0.8167388167388168,1224.381625441696,-7.740458015267175,-0.030534351145038167,1.83206106870229,-0.2863568215892054,-0.0014992503748125937,0.13043478260869565,101.18847865152604,31.457252385426546,2024-09-20 14:35:47.669586176+02:00
1726835747689.1174,2.619565217391304,2.5652173913043477,11.315217391304348,3.0,0.815850815850816,1225.7142857142856,-7.694656488549618,0.3969465648854962,1.9541984732824427,-0.28785607196401797,-0.0014992503748125937,0.13193403298350825,101.19122721174158,31.457252385426546,2024-09-20 14:35:47.689117440+02:00
1726835747708.6487,2.5217391304347827,2.5760869565217392,11.315217391304348,3.0,0.8167388167388168,1224.381625441696,-7.2824427480916025,0.5343511450381679,1.618320610687023,-0.2788605697151424,-0.01199400299850075,0.13493253373313344,101.19397577455628,31.457252385426546,2024-09-20 14:35:47.708648704+02:00
1726835747728.18,2.510869565217391,2.5978260869565215,11.206521739130434,3.0,0.8167388167388168,1224.381625441696,-7.877862595419847,0.41221374045801523,2.030534351145038,-0.2848575712143928,-0.01649175412293853,0.136431784107946,101.19122721174158,31.457252385426546,2024-09-20 14:35:47.728179968+02:00
1726835747747.7112,2.532608695652174,2.5543478260869565,11.597826086956522,3.0,0.8167388167388168,1224.381625441696,-7.358778625954198,1.0534351145038168,1.9389312977099236,-0.2788605697151424,-0.013493253373313342,0.13493253373313344,101.19122721174158,31.457252385426546,2024-09-20 14:35:47.747711232+02:00
1726835747767.2424,2.4891304347826084,2.5869565217391304,11.054347826086957,3.0,0.8167388167388168,1224.381625441696,-7.312977099236641,-0.7022900763358778,1.3587786259541985,-0.2818590704647676,-0.0074962518740629685,0.1424287856071964,101.19122721174158,31.457252385426546,2024-09-20 14:35:47.767242496+02:00
1726835747786.7737,2.6956521739130435,2.532608695652174,11.358695652173912,3.0,0.8167388167388168,1224.381625441696,-7.9541984732824424,1.129770992366412,2.763358778625954,-0.280359820089955,-0.0074962518740629685,0.1394302848575712,101.18847865152604,31.457252385426546,2024-09-20 14:35:47.786773760+02:00
1726835747806.305,2.5,2.510869565217391,11.402173913043478,3.0,0.8167388167388168,1224.381625441696,-7.221374045801526,0.5190839694656488,0.9312977099236641,-0.2863568215892054,0.0,0.1394302848575712,101.18847865152604,31.457252385426546,2024-09-20 14:35:47.806305024+02:00
1726835747825.8362,2.5760869565217392,2.6739130434782608,11.217391304347826,3.0,0.8162948162948163,1225.047593146587,-7.419847328244274,1.114503816793893,1.8778625954198473,-0.2893553223388306,0.0,0.1394302848575712,101.18847865152604,31.457252385426546,2024-09-20 14:35:47.825836288+02:00
1726835747845.3674,2.5543478260869565,2.5,11.402173913043478,3.0,0.8162948162948163,1225.047593146587,-7.557251908396946,1.3282442748091603,1.7862595419847327,-0.2818590704647676,0.0,0.136431784107946,101.19397577455628,31.457252385426546,2024-09-20 14:35:47.845367552+02:00
1726835747864.8987,2.543478260869565,2.5978260869565215,11.315217391304348,3.0,0.8162948162948163,1225.047593146587,-7.358778625954198,1.2213740458015268,1.450381679389313,-0.27436281859070466,0.013493253373313342,0.12143928035982009,101.19122721174158,31.457252385426546,2024-09-20 14:35:47.864898560+02:00
1726835747884.43,2.5543478260869565,2.543478260869565,11.304347826086957,3.0,0.8162948162948163,1225.047593146587,-7.32824427480916,0.9312977099236641,1.8625954198473282,-0.2788605697151424,-0.014992503748125937,0.136431784107946,101.19397577455628,31.457252385426546,2024-09-20 14:35:47.884429824+02:00
1726835747903.9612,2.608695652173913,2.532608695652174,11.347826086956522,3.0,0.8162948162948163,1225.047593146587,-7.6183206106870225,1.4961832061068703,1.9694656488549618,-0.2818590704647676,-0.005997001499250375,0.13793103448275862,101.18847865152604,31.457252385426546,2024-09-20 14:35:47.903961088+02:00
1726835747923.4924,2.4891304347826084,2.5652173913043477,11.326086956521738,3.0,0.8167388167388168,1224.381625441696,-7.49618320610687,1.648854961832061,1.7251908396946565,-0.280359820089955,-0.017991004497751123,0.1394302848575712,101.18847865152604,31.457252385426546,2024-09-20 14:35:47.923492352+02:00
1726835747943.0237,2.543478260869565,2.5869565217391304,11.33695652173913,3.0,0.8162948162948163,1225.047593146587,-7.3893129770992365,1.2061068702290076,1.648854961832061,-0.2788605697151424,-0.004497751124437781,0.12593703148425786,101.19122721174158,31.457252385426546,2024-09-20 14:35:47.943023616+02:00
1726835747962.555,2.510869565217391,2.5543478260869565,11.347826086956522,3.0,0.8167388167388168,1224.381625441696,-7.557251908396946,0.8244274809160305,1.618320610687023,-0.27586206896551724,-0.0029985007496251873,0.136431784107946,101.19672433997022,31.457252385426546,2024-09-20 14:35:47.962554880+02:00
1726835747982.0862,2.532608695652174,2.5869565217391304,11.304347826086957,3.0,0.8162948162948163,1225.047593146587,-7.129770992366412,0.8854961832061068,1.6030534351145038,-0.27586206896551724,0.0029985007496251873,0.12743628185907047,101.19397577455628,31.457252385426546,2024-09-20 14:35:47.982086144+02:00
1726835748001.6174,2.532608695652174,2.5543478260869565,11.315217391304348,3.0,0.8167388167388168,1224.381625441696,-7.480916030534351,0.9007633587786259,1.7251908396946565,-0.2833583208395802,-0.005997001499250375,0.13343328335832083,101.19397577455628,31.457252385426546,2024-09-20 14:35:48.001617408+02:00
1726835748021.1487,2.510869565217391,2.5760869565217392,11.326086956521738,3.0,0.8162948162948163,1225.047593146587,-7.404580152671755,0.4580152671755725,1.816793893129771,-0.2773613193403298,0.010494752623688156,0.12743628185907047,101.18847865152604,31.457252385426546,2024-09-20 14:35:48.021148672+02:00
1726835748040.68,2.5760869565217392,2.608695652173913,11.347826086956522,3.0,0.815850815850816,1225.7142857142856,-7.7251908396946565,0.6870229007633587,1.9083969465648853,-0.2788605697151424,-0.013493253373313342,0.13493253373313344,101.19672433997022,31.457252385426546,2024-09-20 14:35:48.040679936+02:00
1726835748060.2112,2.5760869565217392,2.532608695652174,11.33695652173913,3.0,0.8162948162948163,1225.047593146587,-7.49618320610687,0.732824427480916,1.7099236641221374,-0.2893553223388306,-0.013493253373313342,0.13193403298350825,101.19397577455628,31.457252385426546,2024-09-20 14:35:48.060211200+02:00
1726835748079.7424,2.5217391304347827,2.5760869565217392,11.347826086956522,3.0,0.8167388167388168,1224.381625441696,-7.587786259541985,0.8244274809160305,1.6793893129770991,-0.2773613193403298,-0.01649175412293853,0.136431784107946,101.18847865152604,31.457252385426546,2024-09-20 14:35:48.079742464+02:00
1726835748099.2737,2.532608695652174,2.543478260869565,11.347826086956522,3.0,0.8167388167388168,1224.381625441696,-7.603053435114504,0.48854961832061067,1.6946564885496183,-0.2818590704647676,-0.004497751124437781,0.12893553223388304,101.18847865152604,31.457252385426546,2024-09-20 14:35:48.099273728+02:00
1726835748118.805,2.5652173913043477,2.5652173913043477,11.304347826086957,3.0,0.8167388167388168,1224.381625441696,-7.251908396946565,0.3969465648854962,2.030534351145038,-0.2833583208395802,0.0,0.13043478260869565,101.19672433997022,31.457252385426546,2024-09-20 14:35:48.118804992+02:00
1726835748138.3362,2.5217391304347827,2.5652173913043477,11.358695652173912,3.0,0.8167388167388168,1224.381625441696,-7.190839694656488,1.2366412213740459,1.5725190839694656,-0.2848575712143928,-0.010494752623688156,0.13793103448275862,101.19122721174158,31.457252385426546,2024-09-20 14:35:48.138336256+02:00
1726835748157.8674,2.5543478260869565,2.5652173913043477,11.293478260869565,3.0,0.8167388167388168,1224.381625441696,-7.49618320610687,1.0534351145038168,1.7404580152671756,-0.280359820089955,0.005997001499250375,0.13493253373313344,101.18847865152604,31.457252385426546,2024-09-20 14:35:48.157867520+02:00
1726835748177.3987,2.4782608695652173,2.532608695652174,11.358695652173912,3.0,0.8167388167388168,1224.381625441696,-7.450381679389313,1.2061068702290076,1.9694656488549618,-0.2788605697151424,-0.0029985007496251873,0.12593703148425786,101.18847865152604,31.457252385426546,2024-09-20 14:35:48.177398784+02:00
1726835748196.93,2.5,2.5652173913043477,11.347826086956522,3.0,0.8167388167388168,1224.381625441696,-7.6183206106870225,0.8091603053435115,1.7404580152671756,-0.2773613193403298,0.0074962518740629685,0.1424287856071964,101.19122721174158,31.457252385426546,2024-09-20 14:35:48.196930048+02:00
1726835748216.4612,2.5217391304347827,2.532608695652174,11.315217391304348,3.0,0.8167388167388168,1224.381625441696,-7.6183206106870225,0.183206106870229,1.9694656488549618,-0.2818590704647676,-0.01199400299850075,0.13793103448275862,101.19122721174158,31.457252385426546,2024-09-20 14:35:48.216461056+02:00
1726835748235.9924,2.5652173913043477,2.5652173913043477,11.293478260869565,3.0,0.8162948162948163,1225.047593146587,-7.587786259541985,0.13740458015267176,1.7404580152671756,-0.27586206896551724,-0.013493253373313342,0.136431784107946,101.19122721174158,31.457252385426546,2024-09-20 14:35:48.235992320+02:00
1726835748255.5237,2.5760869565217392,2.5543478260869565,11.347826086956522,3.0,0.8167388167388168,1224.381625441696,-7.221374045801526,0.07633587786259542,1.6335877862595418,-0.272863568215892,-0.010494752623688156,0.13343328335832083,101.18847865152604,31.457252385426546,2024-09-20 14:35:48.255523584+02:00
1726835748275.055,2.5652173913043477,2.5543478260869565,11.315217391304348,3.0,0.8167388167388168,1224.381625441696,-7.297709923664121,0.3511450381679389,1.8931297709923662,-0.2773613193403298,0.0,0.13043478260869565,101.18847865152604,31.457252385426546,2024-09-20 14:35:48.275054848+02:00
1726835748294.5862,2.543478260869565,2.5652173913043477,11.358695652173912,3.0,0.8167388167388168,1224.381625441696,-7.083969465648854,0.7786259541984732,1.7404580152671756,-0.2773613193403298,0.0,0.13043478260869565,101.18573009390971,31.457252385426546,2024-09-20 14:35:48.294586112+02:00
1726835748314.1174,2.5652173913043477,2.5543478260869565,11.369565217391305,3.0,0.8162948162948163,1225.047593146587,-7.114503816793893,1.0381679389312977,1.5725190839694656,-0.27586206896551724,-0.0014992503748125937,0.136431784107946,101.18847865152604,31.457252385426546,2024-09-20 14:35:48.314117376+02:00
1726835748333.6487,2.5869565217391304,2.5760869565217392,11.271739130434783,3.0,0.8162948162948163,1225.047593146587,-7.465648854961832,0.564885496183206,1.66412213740458,-0.2818590704647676,-0.004497751124437781,0.1409295352323838,101.18847865152604,31.457252385426546,2024-09-20 14:35:48.333648640+02:00
1726835748353.18,2.5,2.5217391304347827,11.358695652173912,3.0,0.8162948162948163,1225.047593146587,-7.465648854961832,1.5419847328244274,1.4198473282442747,-0.2788605697151424,-0.004497751124437781,0.13343328335832083,101.19122721174158,31.457252385426546,2024-09-20 14:35:48.353179904+02:00
1726835748372.7112,2.5652173913043477,2.608695652173913,11.25,3.0,0.8162948162948163,1225.047593146587,-7.526717557251908,0.48854961832061067,1.6030534351145038,-0.27436281859070466,-0.013493253373313342,0.13793103448275862,101.19122721174158,31.457252385426546,2024-09-20 14:35:48.372711168+02:00
1726835748392.2424,2.5869565217391304,2.543478260869565,11.358695652173912,3.0,0.815850815850816,1225.7142857142856,-7.7251908396946565,0.366412213740458,1.984732824427481,-0.2773613193403298,-0.014992503748125937,0.13793103448275862,101.19397577455628,31.457252385426546,2024-09-20 14:35:48.392242432+02:00
1726835748411.7737,2.543478260869565,2.5760869565217392,11.304347826086957,3.0,0.8162948162948163,1225.047593146587,-7.816793893129771,0.8702290076335878,2.16793893129771,-0.2788605697151424,-0.0074962518740629685,0.1394302848575712,101.18847865152604,31.457252385426546,2024-09-20 14:35:48.411773696+02:00
1726835748431.305,2.5,2.5869565217391304,11.271739130434783,3.0,0.8162948162948163,1225.047593146587,-7.2824427480916025,1.0076335877862594,1.3893129770992365,-0.2788605697151424,-0.010494752623688156,0.1394302848575712,101.18847865152604,31.457252385426546,2024-09-20 14:35:48.431304960+02:00
1726835748450.8362,2.5760869565217392,2.532608695652174,11.369565217391305,3.0,0.8162948162948163,1225.047593146587,-7.83206106870229,1.0381679389312977,2.045801526717557,-0.27436281859070466,-0.0014992503748125937,0.12893553223388304,101.19122721174158,31.457252385426546,2024-09-20 14:35:48.450836224+02:00
1726835748470.3674,2.5869565217391304,2.5652173913043477,11.304347826086957,3.0,0.8162948162948163,1225.047593146587,-7.770992366412213,0.6259541984732824,1.6946564885496183,-0.2773613193403298,-0.004497751124437781,0.13793103448275862,101.19397577455628,31.457252385426546,2024-09-20 14:35:48.470367488+02:00
1726835748489.8987,2.5652173913043477,2.543478260869565,11.326086956521738,3.0,0.8162948162948163,1225.047593146587,-7.343511450381679,0.9770992366412213,1.618320610687023,-0.2848575712143928,-0.0029985007496251873,0.12593703148425786,101.19122721174158,31.457252385426546,2024-09-20 14:35:48.489898752+02:00
1726835748509.43,2.5652173913043477,2.5760869565217392,11.347826086956522,3.0,0.815850815850816,1225.7142857142856,-7.587786259541985,0.8396946564885496,1.9389312977099236,-0.2773613193403298,0.0,0.136431784107946,101.19397577455628,31.457252385426546,2024-09-20 14:35:48.509430016+02:00
1726835748528.9612,2.510869565217391,2.5760869565217392,11.315217391304348,3.0,0.8162948162948163,1225.047593146587,-7.6183206106870225,0.9007633587786259,1.4351145038167938,-0.2773613193403298,-0.01199400299850075,0.12743628185907047,101.18573009390971,31.457252385426546,2024-09-20 14:35:48.528961280+02:00
1726835748548.4924,2.5760869565217392,2.5543478260869565,11.347826086956522,3.0,0.815850815850816,1225.7142857142856,-7.32824427480916,0.9312977099236641,1.5114503816793892,-0.2788605697151424,0.008995502248875561,0.13043478260869565,101.18658289623588,31.46230828911066,2024-09-20 14:35:48.548492544+02:00
1726835748568.0237,2.5652173913043477,2.5652173913043477,11.315217391304348,3.0,0.8162948162948163,1225.047593146587,-7.862595419847328,0.9312977099236641,1.5267175572519083,-0.27586206896551724,-0.01199400299850075,0.13793103448275862,101.19208005871941,31.46230828911066,2024-09-20 14:35:48.568023808+02:00
1726835748587.555,2.5543478260869565,2.532608695652174,11.33695652173913,3.0,0.815850815850816,1225.7142857142856,-7.862595419847328,1.282442748091603,1.7557251908396947,-0.28785607196401797,-0.01199400299850075,0.136431784107946,101.19208005871941,31.46230828911066,2024-09-20 14:35:48.587554816+02:00
1726835748607.0862,2.532608695652174,2.5760869565217392,11.315217391304348,3.0,0.8162948162948163,1225.047593146587,-8.091603053435113,1.465648854961832,1.6030534351145038,-0.2788605697151424,0.0014992503748125937,0.13493253373313344,101.19208005871941,31.46230828911066,2024-09-20 14:35:48.607086080+02:00
1726835748626.6174,2.532608695652174,2.608695652173913,11.271739130434783,3.0,0.815850815850816,1225.7142857142856,-7.770992366412213,0.564885496183206,1.0534351145038168,-0.2818590704647676,-0.0014992503748125937,0.1394302848575712,101.19482864386003,31.46230828911066,2024-09-20 14:35:48.626617344+02:00
1726835748646.1487,2.5652173913043477,2.543478260869565,11.347826086956522,3.0,0.815850815850816,1225.7142857142856,-8.030534351145038,0.6412213740458015,1.5877862595419847,-0.2863568215892054,-0.0029985007496251873,0.1424287856071964,101.19208005871941,31.46230828911066,2024-09-20 14:35:48.646148608+02:00
1726835748665.68,2.532608695652174,2.5543478260869565,11.347826086956522,3.0,0.815850815850816,1225.7142857142856,-7.740458015267175,0.8244274809160305,1.297709923664122,-0.280359820089955,0.0,0.12893553223388304,101.18933147617803,31.46230828911066,2024-09-20 14:35:48.665679872+02:00
1726835748685.2112,2.4891304347826084,2.5543478260869565,11.347826086956522,3.0,0.815850815850816,1225.7142857142856,-7.694656488549618,0.8854961832061068,1.4045801526717556,-0.2848575712143928,0.0014992503748125937,0.136431784107946,101.19208005871941,31.46230828911066,2024-09-20 14:35:48.685211136+02:00
1726835748704.7424,2.5217391304347827,2.5543478260869565,11.369565217391305,3.0,0.815850815850816,1225.7142857142856,-7.66412213740458,1.0381679389312977,1.5267175572519083,-0.2788605697151424,-0.004497751124437781,0.136431784107946,101.19208005871941,31.46230828911066,2024-09-20 14:35:48.704742400+02:00
1726835748724.2737,2.510869565217391,2.5543478260869565,11.347826086956522,3.0,0.815850815850816,1225.7142857142856,-7.969465648854961,1.1450381679389312,1.6030534351145038,-0.280359820089955,-0.0029985007496251873,0.1394302848575712,101.19208005871941,31.46230828911066,2024-09-20 14:35:48.724273664+02:00
1726835748743.805,2.543478260869565,2.5543478260869565,11.293478260869565,3.0,0.8154068154068155,1226.3817043288864,-7.541984732824427,0.8091603053435115,1.66412213740458,-0.2818590704647676,-0.008995502248875561,0.12593703148425786,101.18658289623588,31.46230828911066,2024-09-20 14:35:48.743804928+02:00
1726835748763.3362,2.5652173913043477,2.5217391304347827,11.358695652173912,3.0,0.815850815850816,1225.7142857142856,-7.633587786259541,1.0381679389312977,1.984732824427481,-0.280359820089955,-0.008995502248875561,0.13043478260869565,101.18933147617803,31.46230828911066,2024-09-20 14:35:48.763336192+02:00
1726835748782.8674,2.532608695652174,2.5543478260869565,11.293478260869565,3.0,0.8162948162948163,1225.047593146587,-7.267175572519084,0.9618320610687022,1.4809160305343512,-0.280359820089955,0.0,0.13193403298350825,101.19208005871941,31.46230828911066,2024-09-20 14:35:48.782867456+02:00
1726835748802.3987,2.5652173913043477,2.543478260869565,11.347826086956522,3.0,0.8162948162948163,1225.047593146587,-7.603053435114504,0.3969465648854962,1.5267175572519083,-0.2833583208395802,-0.010494752623688156,0.1394302848575712,101.19482864386003,31.46230828911066,2024-09-20 14:35:48.802398720+02:00
1726835748821.93,2.543478260869565,2.543478260869565,11.358695652173912,3.0,0.8162948162948163,1225.047593146587,-7.786259541984733,0.6564885496183206,1.6946564885496183,-0.2848575712143928,0.0,0.13493253373313344,101.18933147617803,31.46230828911066,2024-09-20 14:35:48.821929984+02:00
1726835748841.4612,2.543478260869565,2.5543478260869565,11.33695652173913,3.0,0.815850815850816,1225.7142857142856,-7.3893129770992365,0.916030534351145,1.5114503816793892,-0.272863568215892,-0.0029985007496251873,0.1394302848575712,101.19482864386003,31.46230828911066,2024-09-20 14:35:48.841461248+02:00
1726835748860.9924,2.5543478260869565,2.5543478260869565,11.304347826086957,3.0,0.8162948162948163,1225.047593146587,-7.526717557251908,0.9770992366412213,1.7557251908396947,-0.2818590704647676,-0.0029985007496251873,0.13343328335832083,101.19208005871941,31.46230828911066,2024-09-20 14:35:48.860992512+02:00
1726835748880.5237,2.532608695652174,2.5217391304347827,11.358695652173912,3.0,0.815850815850816,1225.7142857142856,-7.404580152671755,0.8091603053435115,1.4045801526717556,-0.27136431784107945,-0.013493253373313342,0.1424287856071964,101.19208005871941,31.46230828911066,2024-09-20 14:35:48.880523776+02:00
1726835748900.055,2.5760869565217392,2.5652173913043477,11.304347826086957,3.0,0.815850815850816,1225.7142857142856,-7.7251908396946565,0.732824427480916,1.66412213740458,-0.27586206896551724,-0.020989505247376312,0.13793103448275862,101.19208005871941,31.46230828911066,2024-09-20 14:35:48.900055040+02:00
1726835748919.5862,2.5217391304347827,2.532608695652174,11.315217391304348,3.0,0.815850815850816,1225.7142857142856,-7.648854961832061,1.3587786259541985,1.5877862595419847,-0.280359820089955,-0.010494752623688156,0.13793103448275862,101.19208005871941,31.46230828911066,2024-09-20 14:35:48.919586304+02:00
1726835748939.1174,2.5217391304347827,2.532608695652174,11.358695652173912,3.0,0.8162948162948163,1225.047593146587,-7.450381679389313,0.7633587786259541,1.83206106870229,-0.2893553223388306,-0.013493253373313342,0.13793103448275862,101.18933147617803,31.46230828911066,2024-09-20 14:35:48.939117312+02:00
1726835748958.6487,2.5543478260869565,2.5543478260869565,11.304347826086957,3.0,0.8162948162948163,1225.047593146587,-7.633587786259541,0.6412213740458015,1.5267175572519083,-0.27136431784107945,-0.0014992503748125937,0.13193403298350825,101.19482864386003,31.46230828911066,2024-09-20 14:35:48.958648576+02:00
1726835748978.18,2.5760869565217392,2.543478260869565,11.369565217391305,3.0,0.815850815850816,1225.7142857142856,-7.450381679389313,1.129770992366412,1.648854961832061,-0.280359820089955,-0.0074962518740629685,0.1394302848575712,101.18933147617803,31.46230828911066,2024-09-20 14:35:48.978179840+02:00
1726835748997.7112,2.532608695652174,2.5652173913043477,11.282608695652174,3.0,0.815850815850816,1225.7142857142856,-7.66412213740458,1.099236641221374,1.66412213740458,-0.280359820089955,-0.004497751124437781,0.13793103448275862,101.18933147617803,31.46230828911066,2024-09-20 14:35:48.997711104+02:00
1726835749017.2424,2.543478260869565,2.5217391304347827,11.33695652173913,3.0,0.815850815850816,1225.7142857142856,-7.938931297709924,1.297709923664122,1.3435114503816794,-0.2833583208395802,-0.0014992503748125937,0.1454272863568216,101.19482864386003,31.46230828911066,2024-09-20 14:35:49.017242368+02:00
1726835749036.7737,2.5217391304347827,2.5652173913043477,11.33695652173913,3.0,0.8162948162948163,1225.047593146587,-7.480916030534351,1.1450381679389312,1.66412213740458,-0.27586206896551724,0.0029985007496251873,0.13493253373313344,101.18933147617803,31.46230828911066,2024-09-20 14:35:49.036773632+02:00
1726835749056.305,2.532608695652174,2.532608695652174,11.315217391304348,3.0,0.8162948162948163,1225.047593146587,-7.358778625954198,1.0229007633587786,1.4351145038167938,-0.272863568215892,-0.0029985007496251873,0.1394302848575712,101.18108574414931,31.46230828911066,2024-09-20 14:35:49.056304896+02:00
1726835749075.8362,2.5760869565217392,2.5652173913043477,11.282608695652174,3.0,0.8162948162948163,1225.047593146587,-7.49618320610687,1.0229007633587786,1.7404580152671756,-0.280359820089955,-0.01649175412293853,0.13793103448275862,101.19482864386003,31.46230828911066,2024-09-20 14:35:49.075836160+02:00
1726835749095.3674,2.510869565217391,2.5217391304347827,11.358695652173912,3.0,0.815850815850816,1225.7142857142856,-7.938931297709924,1.282442748091603,1.9083969465648853,-0.280359820089955,-0.010494752623688156,0.13193403298350825,101.18658289623588,31.46230828911066,2024-09-20 14:35:49.095367424+02:00
1726835749114.8987,2.4891304347826084,2.5760869565217392,11.326086956521738,3.0,0.8162948162948163,1225.047593146587,-7.541984732824427,1.0534351145038168,1.816793893129771,-0.280359820089955,-0.0074962518740629685,0.13793103448275862,101.19482864386003,31.46230828911066,2024-09-20 14:35:49.114898688+02:00
1726835749134.43,2.5217391304347827,2.532608695652174,11.326086956521738,3.0,0.8162948162948163,1225.047593146587,-7.893129770992366,0.5190839694656488,1.9541984732824427,-0.2788605697151424,0.0,0.136431784107946,101.18933147617803,31.46230828911066,2024-09-20 14:35:49.134429952+02:00
1726835749153.9612,2.5978260869565215,2.5217391304347827,11.315217391304348,3.0,0.8162948162948163,1225.047593146587,-7.480916030534351,0.183206106870229,1.8931297709923662,-0.272863568215892,0.0,0.12593703148425786,101.18933147617803,31.46230828911066,2024-09-20 14:35:49.153961216+02:00
1726835749173.4924,2.532608695652174,2.532608695652174,11.304347826086957,3.0,0.8162948162948163,1225.047593146587,-7.66412213740458,1.0687022900763359,1.5725190839694656,-0.2788605697151424,0.004497751124437781,0.1394302848575712,101.19208005871941,31.46230828911066,2024-09-20 14:35:49.173492480+02:00
1726835749193.0237,2.5543478260869565,2.5760869565217392,11.33695652173913,3.0,0.8162948162948163,1225.047593146587,-6.885496183206107,0.916030534351145,1.7862595419847327,-0.2788605697151424,-0.0029985007496251873,0.136431784107946,101.19208005871941,31.46230828911066,2024-09-20 14:35:49.193023744+02:00
1726835749212.555,2.5760869565217392,2.5217391304347827,11.33695652173913,3.0,0.8162948162948163,1225.047593146587,-7.435114503816793,1.0076335877862594,1.6946564885496183,-0.27436281859070466,-0.0029985007496251873,0.13343328335832083,101.18383431889298,31.46230828911066,2024-09-20 14:35:49.212555008+02:00
1726835749232.0862,2.532608695652174,2.543478260869565,11.315217391304348,3.0,0.8167388167388168,1224.381625441696,-7.068702290076335,1.0229007633587786,1.9541984732824427,-0.2833583208395802,0.013493253373313342,0.136431784107946,101.18933147617803,31.46230828911066,2024-09-20 14:35:49.232086272+02:00
1726835749251.6174,2.5652173913043477,2.543478260869565,11.33695652173913,3.0,0.8162948162948163,1225.047593146587,-7.450381679389313,1.0076335877862594,1.7404580152671756,-0.27586206896551724,-0.010494752623688156,0.1454272863568216,101.18658289623588,31.46230828911066,2024-09-20 14:35:49.251617536+02:00
1726835749271.1487,2.4782608695652173,2.5543478260869565,11.293478260869565,3.0,0.8162948162948163,1225.047593146587,-7.526717557251908,1.3282442748091603,1.3129770992366412,-0.2833583208395802,-0.014992503748125937,0.1394302848575712,101.18933147617803,31.46230828911066,2024-09-20 14:35:49.271148800+02:00
1726835749290.68,2.5652173913043477,2.5543478260869565,11.380434782608695,3.0,0.8167388167388168,1224.381625441696,-7.465648854961832,1.083969465648855,1.5267175572519083,-0.280359820089955,0.0029985007496251873,0.13793103448275862,101.19208005871941,31.46230828911066,2024-09-20 14:35:49.290679808+02:00
1726835749310.2112,2.5217391304347827,2.543478260869565,11.271739130434783,3.0,0.8167388167388168,1224.381625441696,-7.633587786259541,0.6412213740458015,1.6946564885496183,-0.280359820089955,-0.008995502248875561,0.13493253373313344,101.18933147617803,31.46230828911066,2024-09-20 14:35:49.310211072+02:00
1726835749329.7424,2.543478260869565,2.510869565217391,11.315217391304348,3.0,0.8167388167388168,1224.381625441696,-7.770992366412213,1.4198473282442747,2.3206106870229006,-0.2818590704647676,-0.0074962518740629685,0.136431784107946,101.18933147617803,31.46230828911066,2024-09-20 14:35:49.329742336+02:00
1726835749349.2737,2.5217391304347827,2.5760869565217392,11.380434782608695,3.0,0.8167388167388168,1224.381625441696,-7.145038167938931,0.5801526717557252,1.1755725190839694,-0.2833583208395802,-0.005997001499250375,0.13043478260869565,101.19208005871941,31.46230828911066,2024-09-20 14:35:49.349273600+02:00
1726835749368.805,2.5760869565217392,2.532608695652174,11.304347826086957,3.0,0.8167388167388168,1224.381625441696,-7.740458015267175,0.5801526717557252,1.7099236641221374,-0.27586206896551724,-0.0074962518740629685,0.13043478260869565,101.18658289623588,31.46230828911066,2024-09-20 14:35:49.368804864+02:00
1726835749388.3362,2.5217391304347827,2.5543478260869565,11.369565217391305,3.0,0.8171828171828173,1223.7163814180929,-7.816793893129771,1.66412213740458,1.9694656488549618,-0.2788605697151424,0.0074962518740629685,0.12743628185907047,101.19208005871941,31.46230828911066,2024-09-20 14:35:49.388336128+02:00
1726835749407.8674,2.4891304347826084,2.543478260869565,11.358695652173912,3.0,0.8167388167388168,1224.381625441696,-7.7251908396946565,0.8396946564885496,1.6030534351145038,-0.27586206896551724,-0.010494752623688156,0.13043478260869565,101.18658289623588,31.46230828911066,2024-09-20 14:35:49.407867392+02:00
1726835749427.3987,2.532608695652174,2.510869565217391,11.304347826086957,3.0,0.8167388167388168,1224.381625441696,-7.450381679389313,0.183206106870229,1.9389312977099236,-0.2773613193403298,-0.01199400299850075,0.136431784107946,101.19208005871941,31.46230828911066,2024-09-20 14:35:49.427398656+02:00
1726835749446.93,2.5760869565217392,2.532608695652174,11.369565217391305,3.0,0.8167388167388168,1224.381625441696,-7.374045801526718,0.33587786259541985,1.450381679389313,-0.27436281859070466,-0.008995502248875561,0.13043478260869565,101.18933147617803,31.46230828911066,2024-09-20 14:35:49.446929920+02:00
1726835749466.4612,2.543478260869565,2.5543478260869565,11.347826086956522,3.0,0.8171828171828173,1223.7163814180929,-7.099236641221374,1.0687022900763359,1.4045801526717556,-0.2818590704647676,0.0029985007496251873,0.136431784107946,101.18658289623588,31.46230828911066,2024-09-20 14:35:49.466461184+02:00
1726835749485.9924,2.532608695652174,2.5652173913043477,11.293478260869565,3.0,0.8171828171828173,1223.7163814180929,-7.251908396946565,0.3511450381679389,1.648854961832061,-0.280359820089955,0.005997001499250375,0.13343328335832083,101.19208005871941,31.46230828911066,2024-09-20 14:35:49.485992448+02:00
1726835749505.5237,2.608695652173913,2.5,11.33695652173913,3.0,0.8171828171828173,1223.7163814180929,-7.923664122137405,0.732824427480916,1.984732824427481,-0.2863568215892054,-0.0029985007496251873,0.13493253373313344,101.19208005871941,31.46230828911066,2024-09-20 14:35:49.505523712+02:00
1726835749525.055,2.4782608695652173,2.5978260869565215,11.326086956521738,3.0,0.8171828171828173,1223.7163814180929,-7.145038167938931,1.2671755725190839,1.4045801526717556,-0.2773613193403298,-0.005997001499250375,0.136431784107946,101.18383431889298,31.46230828911066,2024-09-20 14:35:49.525054976+02:00
1726835749544.5862,2.5217391304347827,2.532608695652174,11.326086956521738,3.0,0.8171828171828173,1223.7163814180929,-7.374045801526718,1.0229007633587786,1.9083969465648853,-0.2773613193403298,-0.01199400299850075,0.13043478260869565,101.18553988733244,31.472420097352007,2024-09-20 14:35:49.544586240+02:00
1726835749564.1174,2.532608695652174,2.543478260869565,11.304347826086957,3.0,0.8176268176268177,1223.051859896823,-7.648854961832061,0.732824427480916,1.8778625954198473,-0.27436281859070466,-0.008995502248875561,0.12593703148425786,101.19103713392093,31.472420097352007,2024-09-20 14:35:49.564117504+02:00
1726835749583.6487,2.5,2.532608695652174,11.369565217391305,3.0,0.8171828171828173,1223.7163814180929,-7.145038167938931,0.9923664122137404,1.9694656488549618,-0.2818590704647676,0.0,0.13043478260869565,101.19928302329858,31.472420097352007,2024-09-20 14:35:49.583648768+02:00
1726835749603.18,2.5869565217391304,2.532608695652174,11.271739130434783,3.0,0.8171828171828173,1223.7163814180929,-7.251908396946565,0.42748091603053434,1.7862595419847327,-0.27436281859070466,-0.010494752623688156,0.13793103448275862,101.19103713392093,31.472420097352007,2024-09-20 14:35:49.603180032+02:00
1726835749622.7112,2.4891304347826084,2.5217391304347827,11.391304347826086,3.0,0.8176268176268177,1223.051859896823,-7.419847328244274,1.3282442748091603,1.83206106870229,-0.2788605697151424,0.0029985007496251873,0.1409295352323838,101.18553988733244,31.472420097352007,2024-09-20 14:35:49.622711296+02:00
1726835749642.2424,2.5543478260869565,2.619565217391304,11.293478260869565,3.0,0.8176268176268177,1223.051859896823,-7.099236641221374,0.47328244274809156,1.3129770992366412,-0.2818590704647676,-0.010494752623688156,0.13793103448275862,101.19103713392093,31.472420097352007,2024-09-20 14:35:49.642242304+02:00
1726835749661.7737,2.4891304347826084,2.510869565217391,11.326086956521738,3.0,0.8176268176268177,1223.051859896823,-7.603053435114504,0.732824427480916,1.7404580152671756,-0.2848575712143928,0.0074962518740629685,0.13493253373313344,101.19103713392093,31.472420097352007,2024-09-20 14:35:49.661773568+02:00
1726835749681.305,2.5217391304347827,2.543478260869565,11.33695652173913,3.0,0.8176268176268177,1223.051859896823,-6.885496183206107,0.16793893129770993,1.7251908396946565,-0.28785607196401797,0.005997001499250375,0.13343328335832083,101.19103713392093,31.472420097352007,2024-09-20 14:35:49.681304832+02:00
1726835749700.8362,2.543478260869565,2.532608695652174,11.293478260869565,3.0,0.8176268176268177,1223.051859896823,-7.511450381679389,0.47328244274809156,1.8931297709923662,-0.2833583208395802,-0.004497751124437781,0.1394302848575712,101.18828850932704,31.472420097352007,2024-09-20 14:35:49.700836096+02:00
1726835749720.3674,2.543478260869565,2.5543478260869565,11.358695652173912,3.0,0.818070818070818,1222.3880597014925,-7.267175572519084,0.41221374045801523,1.984732824427481,-0.2833583208395802,-0.010494752623688156,0.13493253373313344,101.19103713392093,31.472420097352007,2024-09-20 14:35:49.720367360+02:00
1726835749739.8987,2.5217391304347827,2.5760869565217392,11.304347826086957,3.0,0.818070818070818,1222.3880597014925,-7.526717557251908,0.564885496183206,1.7557251908396947,-0.27436281859070466,-0.010494752623688156,0.13343328335832083,101.18828850932704,31.472420097352007,2024-09-20 14:35:49.739898624+02:00
1726835749759.43,2.543478260869565,2.5543478260869565,11.33695652173913,3.0,0.818070818070818,1222.3880597014925,-7.343511450381679,0.5801526717557252,1.9541984732824427,-0.2833583208395802,-0.005997001499250375,0.13343328335832083,101.18828850932704,31.472420097352007,2024-09-20 14:35:49.759429888+02:00
1726835749778.9612,2.543478260869565,2.543478260869565,11.33695652173913,3.0,0.818070818070818,1222.3880597014925,-7.435114503816793,0.6564885496183206,1.6793893129770991,-0.280359820089955,-0.010494752623688156,0.13043478260869565,101.18828850932704,31.472420097352007,2024-09-20 14:35:49.778961152+02:00
1726835749798.4924,2.5217391304347827,2.543478260869565,11.326086956521738,3.0,0.8176268176268177,1223.051859896823,-7.2824427480916025,0.5801526717557252,1.5572519083969465,-0.2833583208395802,0.005997001499250375,0.136431784107946,101.19378576111417,31.472420097352007,2024-09-20 14:35:49.798492416+02:00
1726835749818.0237,2.510869565217391,2.543478260869565,11.326086956521738,3.0,0.818070818070818,1222.3880597014925,-7.541984732824427,0.5343511450381679,1.7404580152671756,-0.2863568215892054,-0.004497751124437781,0.13343328335832083,101.19378576111417,31.472420097352007,2024-09-20 14:35:49.818023680+02:00
1726835749837.555,2.532608695652174,2.543478260869565,11.315217391304348,3.0,0.8185148185148186,1221.7249796582587,-7.343511450381679,0.7480916030534351,1.66412213740458,-0.2848575712143928,-0.004497751124437781,0.136431784107946,101.19378576111417,31.472420097352007,2024-09-20 14:35:49.837554944+02:00
1726835749857.0862,2.5652173913043477,2.543478260869565,11.347826086956522,3.0,0.8185148185148186,1221.7249796582587,-7.267175572519084,0.8396946564885496,1.8778625954198473,-0.2848575712143928,-0.004497751124437781,0.1394302848575712,101.19103713392093,31.472420097352007,2024-09-20 14:35:49.857086208+02:00
1726835749876.6174,2.543478260869565,2.5543478260869565,11.304347826086957,3.0,0.8185148185148186,1221.7249796582587,-7.572519083969465,0.8702290076335878,1.3740458015267174,-0.27136431784107945,-0.0074962518740629685,0.12443778110944527,101.19378576111417,31.472420097352007,2024-09-20 14:35:49.876617472+02:00
1726835749896.1487,2.5760869565217392,2.532608695652174,11.347826086956522,3.0,0.8185148185148186,1221.7249796582587,-7.343511450381679,1.0229007633587786,1.8778625954198473,-0.2833583208395802,-0.01199400299850075,0.12893553223388304,101.19103713392093,31.472420097352007,2024-09-20 14:35:49.896148736+02:00
1726835749915.68,2.543478260869565,2.5869565217391304,11.358695652173912,3.0,0.8189588189588191,1221.0626185958254,-7.435114503816793,1.1908396946564885,1.7862595419847327,-0.2863568215892054,-0.014992503748125937,0.13493253373313344,101.18828850932704,31.472420097352007,2024-09-20 14:35:49.915680+02:00
1726835749935.2112,2.4239130434782608,2.5760869565217392,11.315217391304348,3.0,0.8189588189588191,1221.0626185958254,-7.358778625954198,1.2213740458015268,1.66412213740458,-0.2773613193403298,-0.005997001499250375,0.13493253373313344,101.19103713392093,31.472420097352007,2024-09-20 14:35:49.935211264+02:00
1726835749954.7424,2.510869565217391,2.5652173913043477,11.293478260869565,3.0,0.8189588189588191,1221.0626185958254,-6.809160305343511,0.9770992366412213,1.3129770992366412,-0.272863568215892,-0.005997001499250375,0.13343328335832083,101.19103713392093,31.472420097352007,2024-09-20 14:35:49.954742528+02:00
1726835749974.2737,2.5978260869565215,2.5543478260869565,11.358695652173912,3.0,0.8194028194028194,1220.4009753454347,-7.251908396946565,0.47328244274809156,1.9236641221374045,-0.280359820089955,-0.004497751124437781,0.13793103448275862,101.18828850932704,31.472420097352007,2024-09-20 14:35:49.974273792+02:00
1726835749993.805,2.5652173913043477,2.5543478260869565,11.239130434782608,3.0,0.8194028194028194,1220.4009753454347,-7.511450381679389,0.7175572519083969,1.9541984732824427,-0.280359820089955,-0.0014992503748125937,0.13493253373313344,101.18828850932704,31.472420097352007,2024-09-20 14:35:49.993805056+02:00
1726835750013.3362,2.532608695652174,2.5652173913043477,11.391304347826086,3.0,0.8194028194028194,1220.4009753454347,-7.404580152671755,0.48854961832061067,1.2671755725190839,-0.2833583208395802,-0.0074962518740629685,0.136431784107946,101.19103713392093,31.472420097352007,2024-09-20 14:35:50.013336064+02:00
1726835750032.8674,2.4347826086956523,2.5543478260869565,11.380434782608695,3.0,0.8198468198468198,1219.740048740861,-7.755725190839694,1.4351145038167938,1.984732824427481,-0.2773613193403298,-0.004497751124437781,0.13043478260869565,101.19103713392093,31.472420097352007,2024-09-20 14:35:50.032867328+02:00
1726835750052.3987,2.510869565217391,2.5869565217391304,11.315217391304348,3.0,0.8198468198468198,1219.740048740861,-7.435114503816793,0.6564885496183206,1.816793893129771,-0.280359820089955,-0.010494752623688156,0.13493253373313344,101.19103713392093,31.472420097352007,2024-09-20 14:35:50.052398592+02:00
1726835750071.93,2.5978260869565215,2.510869565217391,11.304347826086957,3.0,0.8202908202908203,1219.0798376184032,-7.877862595419847,0.0916030534351145,1.7862595419847327,-0.280359820089955,-0.014992503748125937,0.13043478260869565,101.19378576111417,31.472420097352007,2024-09-20 14:35:50.071929856+02:00
1726835750091.4612,2.5978260869565215,2.543478260869565,11.326086956521738,3.0,0.8202908202908203,1219.0798376184032,-7.419847328244274,0.48854961832061067,1.8931297709923662,-0.280359820089955,0.0,0.13193403298350825,101.19103713392093,31.472420097352007,2024-09-20 14:35:50.091461120+02:00
1726835750110.9924,2.532608695652174,2.5543478260869565,11.391304347826086,3.0,0.8207348207348207,1218.4203408168785,-7.480916030534351,0.8396946564885496,1.5572519083969465,-0.2773613193403298,-0.017991004497751123,0.12893553223388304,101.18553988733244,31.472420097352007,2024-09-20 14:35:50.110992384+02:00
1726835750130.5237,2.5,2.5760869565217392,11.315217391304348,3.0,0.8207348207348207,1218.4203408168785,-6.885496183206107,0.9618320610687022,1.4198473282442747,-0.2773613193403298,-0.004497751124437781,0.12893553223388304,101.18553988733244,31.472420097352007,2024-09-20 14:35:50.130523648+02:00
1726835750150.055,2.5543478260869565,2.543478260869565,11.293478260869565,3.0,0.8202908202908203,1219.0798376184032,-7.114503816793893,0.5190839694656488,1.450381679389313,-0.2818590704647676,-0.0014992503748125937,0.12743628185907047,101.18828850932704,31.472420097352007,2024-09-20 14:35:50.150054912+02:00
1726835750169.5862,2.5652173913043477,2.510869565217391,11.41304347826087,3.0,0.8211788211788212,1217.7615571776155,-7.648854961832061,0.8244274809160305,1.6030534351145038,-0.2788605697151424,-0.0014992503748125937,0.1409295352323838,101.19103713392093,31.472420097352007,2024-09-20 14:35:50.169586176+02:00
1726835750189.1174,2.5543478260869565,2.5543478260869565,11.26086956521739,3.0,0.8211788211788212,1217.7615571776155,-7.572519083969465,0.916030534351145,1.5114503816793892,-0.2833583208395802,0.0029985007496251873,0.13343328335832083,101.19378576111417,31.472420097352007,2024-09-20 14:35:50.189117440+02:00
1726835750208.6487,2.4891304347826084,2.5760869565217392,11.380434782608695,3.0,0.8216228216228216,1217.1034855444475,-7.511450381679389,1.450381679389313,1.7557251908396947,-0.2818590704647676,-0.0014992503748125937,0.14392803598200898,101.18828850932704,31.472420097352007,2024-09-20 14:35:50.208648704+02:00
1726835750228.18,2.5217391304347827,2.5760869565217392,11.315217391304348,3.0,0.8220668220668221,1216.446124763705,-7.251908396946565,1.297709923664122,1.4045801526717556,-0.272863568215892,-0.013493253373313342,0.1409295352323838,101.19378576111417,31.472420097352007,2024-09-20 14:35:50.228179968+02:00
1726835750247.7112,2.543478260869565,2.543478260869565,11.293478260869565,3.0,0.8220668220668221,1216.446124763705,-7.66412213740458,1.1755725190839694,1.7251908396946565,-0.2788605697151424,-0.008995502248875561,0.136431784107946,101.18279126793719,31.472420097352007,2024-09-20 14:35:50.247711232+02:00
1726835750267.2424,2.619565217391304,2.5217391304347827,11.347826086956522,3.0,0.8225108225108226,1215.7894736842104,-7.755725190839694,0.732824427480916,1.8625954198473282,-0.27436281859070466,-0.01199400299850075,0.13493253373313344,101.19378576111417,31.472420097352007,2024-09-20 14:35:50.267242496+02:00
1726835750286.7737,2.510869565217391,2.5760869565217392,11.326086956521738,3.0,0.8225108225108226,1215.7894736842104,-7.374045801526718,1.816793893129771,1.297709923664122,-0.2818590704647676,-0.008995502248875561,0.13793103448275862,101.19103713392093,31.472420097352007,2024-09-20 14:35:50.286773760+02:00
1726835750306.305,2.4782608695652173,2.5652173913043477,11.326086956521738,3.0,0.822954822954823,1215.13353115727,-7.343511450381679,0.7022900763358778,1.4961832061068703,-0.2848575712143928,0.0014992503748125937,0.13493253373313344,101.18553988733244,31.472420097352007,2024-09-20 14:35:50.306305024+02:00
1726835750325.8362,2.5543478260869565,2.532608695652174,11.347826086956522,3.0,0.8233988233988235,1214.4782960366674,-7.603053435114504,0.5190839694656488,1.7862595419847327,-0.2863568215892054,-0.004497751124437781,0.13493253373313344,101.19378576111417,31.472420097352007,2024-09-20 14:35:50.325836288+02:00
1726835750345.3674,2.608695652173913,2.5217391304347827,11.326086956521738,3.0,0.8233988233988235,1214.4782960366674,-7.862595419847328,1.2366412213740459,2.0,-0.2833583208395802,0.0014992503748125937,0.136431784107946,101.19378576111417,31.472420097352007,2024-09-20 14:35:50.345367552+02:00
1726835750364.8987,2.4239130434782608,2.619565217391304,11.347826086956522,3.0,0.8238428238428238,1213.823767178658,-7.114503816793893,0.8091603053435115,0.8854961832061068,-0.2848575712143928,-0.0029985007496251873,0.1409295352323838,101.1965343909067,31.472420097352007,2024-09-20 14:35:50.364898560+02:00
1726835750384.43,2.608695652173913,2.510869565217391,11.326086956521738,3.0,0.8242868242868243,1213.1699434419606,-8.229007633587786,0.8854961832061068,2.1221374045801524,-0.2833583208395802,-0.010494752623688156,0.12593703148425786,101.19103713392093,31.472420097352007,2024-09-20 14:35:50.384429824+02:00
1726835750403.9612,2.5,2.5760869565217392,11.347826086956522,3.0,0.8247308247308247,1212.5168236877523,-7.404580152671755,1.2366412213740459,1.5267175572519083,-0.2848575712143928,-0.0074962518740629685,0.136431784107946,101.19103713392093,31.472420097352007,2024-09-20 14:35:50.403961088+02:00
1726835750423.4924,2.5543478260869565,2.5978260869565215,11.326086956521738,3.0,0.8247308247308247,1212.5168236877523,-7.572519083969465,0.7786259541984732,1.3282442748091603,-0.2893553223388306,-0.013493253373313342,0.1394302848575712,101.19103713392093,31.472420097352007,2024-09-20 14:35:50.423492352+02:00
1726835750443.0237,2.5869565217391304,2.4782608695652173,11.326086956521738,3.0,0.8251748251748251,1211.864406779661,-8.106870229007633,1.4198473282442747,1.9541984732824427,-0.280359820089955,-0.01199400299850075,0.13193403298350825,101.18828850932704,31.472420097352007,2024-09-20 14:35:50.443023616+02:00
1726835750462.555,2.467391304347826,2.5760869565217392,11.315217391304348,3.0,0.8256188256188256,1211.2126915837591,-7.251908396946565,0.7480916030534351,1.6946564885496183,-0.2848575712143928,-0.0014992503748125937,0.12293853073463268,101.19378576111417,31.472420097352007,2024-09-20 14:35:50.462554880+02:00
1726835750482.0862,2.5543478260869565,2.532608695652174,11.326086956521738,3.0,0.826062826062826,1210.5616769685569,-7.603053435114504,1.3740458015267174,1.465648854961832,-0.27586206896551724,0.0029985007496251873,0.13493253373313344,101.18279126793719,31.472420097352007,2024-09-20 14:35:50.482086144+02:00
1726835750501.6174,2.5,2.543478260869565,11.282608695652174,3.0,0.826062826062826,1210.5616769685569,-7.816793893129771,1.1755725190839694,2.1221374045801524,-0.2788605697151424,-0.004497751124437781,0.1424287856071964,101.18828850932704,31.472420097352007,2024-09-20 14:35:50.501617408+02:00
1726835750521.1487,2.5543478260869565,2.5543478260869565,11.315217391304348,3.0,0.8269508269508271,1209.2617449664428,-7.587786259541985,0.8396946564885496,1.618320610687023,-0.280359820089955,0.0,0.1394302848575712,101.1965343909067,31.472420097352007,2024-09-20 14:35:50.521148672+02:00
1726835750540.68,2.5217391304347827,2.543478260869565,11.358695652173912,3.0,0.8273948273948275,1208.6128253286824,-7.297709923664121,0.6870229007633587,1.4961832061068703,-0.27586206896551724,-0.0029985007496251873,0.13493253373313344,101.19568151597689,31.467364193085814,2024-09-20 14:35:50.540679936+02:00
1726835750560.2112,2.5652173913043477,2.5652173913043477,11.304347826086957,3.0,0.8278388278388279,1207.9646017699115,-7.32824427480916,0.6564885496183206,1.7251908396946565,-0.2788605697151424,-0.0014992503748125937,0.13493253373313344,101.19293290851033,31.467364193085814,2024-09-20 14:35:50.560211200+02:00
1726835750579.7424,2.5543478260869565,2.510869565217391,11.33695652173913,3.0,0.8282828282828284,1207.3170731707316,-7.419847328244274,0.916030534351145,1.4045801526717556,-0.26686656671664166,0.010494752623688156,0.13193403298350825,101.19843012604274,31.467364193085814,2024-09-20 14:35:50.579742464+02:00
1726835750599.2737,2.4782608695652173,2.5869565217391304,11.315217391304348,3.0,0.8287268287268288,1206.670238414144,-7.312977099236641,0.8091603053435115,1.465648854961832,-0.2848575712143928,-0.01199400299850075,0.136431784107946,101.18743570137504,31.467364193085814,2024-09-20 14:35:50.599273728+02:00
1726835750618.805,2.608695652173913,2.532608695652174,11.33695652173913,3.0,0.8291708291708292,1206.0240963855422,-7.7251908396946565,1.0229007633587786,1.9541984732824427,-0.2833583208395802,0.0074962518740629685,0.12893553223388304,101.18743570137504,31.467364193085814,2024-09-20 14:35:50.618804992+02:00
1726835750638.3362,2.4891304347826084,2.5652173913043477,11.326086956521738,3.0,0.8296148296148297,1205.3786459727053,-7.511450381679389,0.9312977099236641,1.5114503816793892,-0.27436281859070466,0.0074962518740629685,0.136431784107946,101.19018430364304,31.467364193085814,2024-09-20 14:35:50.638336256+02:00
1726835750657.8674,2.543478260869565,2.5543478260869565,11.315217391304348,3.0,0.83005883005883,1204.733886065793,-7.98473282442748,0.7786259541984732,1.5877862595419847,-0.2833583208395802,0.0014992503748125937,0.1394302848575712,101.19018430364304,31.467364193085814,2024-09-20 14:35:50.657867520+02:00
1726835750677.3987,2.5217391304347827,2.532608695652174,11.326086956521738,3.0,0.8305028305028306,1204.0898155573375,-7.816793893129771,1.1755725190839694,1.7404580152671756,-0.2773613193403298,0.004497751124437781,0.13043478260869565,101.18743570137504,31.467364193085814,2024-09-20 14:35:50.677398784+02:00
1726835750696.93,2.5217391304347827,2.5760869565217392,11.315217391304348,3.0,0.830946830946831,1203.4464333422388,-7.893129770992366,1.0229007633587786,1.9236641221374045,-0.280359820089955,0.0014992503748125937,0.1394302848575712,101.18193850463689,31.467364193085814,2024-09-20 14:35:50.696930048+02:00
1726835750716.4612,2.543478260869565,2.532608695652174,11.33695652173913,3.0,0.8313908313908314,1202.803738317757,-7.648854961832061,1.1755725190839694,1.83206106870229,-0.2818590704647676,-0.010494752623688156,0.13343328335832083,101.19293290851033,31.467364193085814,2024-09-20 14:35:50.716461056+02:00
1726835750735.9924,2.5,2.532608695652174,11.347826086956522,3.0,0.8313908313908314,1202.803738317757,-7.893129770992366,1.0076335877862594,2.1374045801526718,-0.28785607196401797,-0.0074962518740629685,0.1409295352323838,101.19018430364304,31.467364193085814,2024-09-20 14:35:50.735992320+02:00
1726835750755.5237,2.532608695652174,2.543478260869565,11.326086956521738,3.0,0.8318348318348319,1202.1617293835068,-7.877862595419847,0.732824427480916,2.259541984732824,-0.2848575712143928,-0.014992503748125937,0.14392803598200898,101.19018430364304,31.467364193085814,2024-09-20 14:35:50.755523584+02:00
1726835750775.055,2.510869565217391,2.543478260869565,11.347826086956522,3.0,0.8327228327228327,1200.8797653958945,-7.312977099236641,0.5038167938931297,1.984732824427481,-0.27586206896551724,0.0029985007496251873,0.13793103448275862,101.18468710170632,31.467364193085814,2024-09-20 14:35:50.775054848+02:00
1726835750794.5862,2.5652173913043477,2.5543478260869565,11.304347826086957,3.0,0.8327228327228327,1200.8797653958945,-7.251908396946565,0.366412213740458,2.0,-0.272863568215892,-0.0074962518740629685,0.12893553223388304,101.19018430364304,31.467364193085814,2024-09-20 14:35:50.794586112+02:00
1726835750814.1174,2.543478260869565,2.5217391304347827,11.326086956521738,3.0,0.8331668331668332,1200.2398081534773,-7.2824427480916025,0.9007633587786259,1.8778625954198473,-0.29235382308845576,-0.0014992503748125937,0.13343328335832083,101.18743570137504,31.467364193085814,2024-09-20 14:35:50.814117376+02:00
1726835750833.6487,2.543478260869565,2.5978260869565215,11.380434782608695,3.0,0.8336108336108337,1199.600532623169,-7.145038167938931,1.0687022900763359,1.8015267175572518,-0.2818590704647676,-0.0014992503748125937,0.13493253373313344,101.19018430364304,31.467364193085814,2024-09-20 14:35:50.833648640+02:00
1726835750853.18,2.4891304347826084,2.543478260869565,11.25,3.0,0.8336108336108337,1199.600532623169,-7.32824427480916,0.6412213740458015,1.648854961832061,-0.2893553223388306,-0.008995502248875561,0.136431784107946,101.18468710170632,31.467364193085814,2024-09-20 14:35:50.853179904+02:00
1726835750872.7112,2.5869565217391304,2.510869565217391,11.358695652173912,3.0,0.8344988344988344,1198.3240223463688,-7.312977099236641,0.7786259541984732,1.9541984732824427,-0.2788605697151424,-0.010494752623688156,0.13793103448275862,101.19568151597689,31.467364193085814,2024-09-20 14:35:50.872711168+02:00
1726835750892.2424,2.5760869565217392,2.5978260869565215,11.315217391304348,3.0,0.8349428349428349,1197.686785429407,-7.526717557251908,0.6717557251908397,1.3587786259541985,-0.2698650674662669,-0.01199400299850075,0.13343328335832083,101.19018430364304,31.467364193085814,2024-09-20 14:35:50.892242432+02:00
1726835750911.7737,2.510869565217391,2.5760869565217392,11.326086956521738,3.0,0.8349428349428349,1197.686785429407,-7.541984732824427,1.4198473282442747,1.66412213740458,-0.27436281859070466,-0.019490254872563718,0.13493253373313344,101.19293290851033,31.467364193085814,2024-09-20 14:35:50.911773696+02:00
1726835750931.305,2.4782608695652173,2.5760869565217392,11.315217391304348,3.0,0.8353868353868353,1197.0502258836036,-7.297709923664121,0.9770992366412213,1.816793893129771,-0.280359820089955,-0.008995502248875561,0.1424287856071964,101.18743570137504,31.467364193085814,2024-09-20 14:35:50.931304960+02:00
1726835750950.8362,2.510869565217391,2.5543478260869565,11.33695652173913,3.0,0.8358308358308358,1196.414342629482,-7.419847328244274,0.7175572519083969,1.7557251908396947,-0.2773613193403298,-0.0074962518740629685,0.13493253373313344,101.19018430364304,31.467364193085814,2024-09-20 14:35:50.950836224+02:00
1726835750970.3674,2.510869565217391,2.532608695652174,11.304347826086957,3.0,0.8362748362748363,1195.7791345898593,-7.740458015267175,0.13740458015267176,1.984732824427481,-0.2788605697151424,0.0014992503748125937,0.13193403298350825,101.19018430364304,31.467364193085814,2024-09-20 14:35:50.970367488+02:00
1726835750989.8987,2.5869565217391304,2.543478260869565,11.347826086956522,3.0,0.8367188367188366,1195.1446006898382,-7.2824427480916025,0.15267175572519084,1.8015267175572518,-0.2833583208395802,-0.010494752623688156,0.136431784107946,101.18468710170632,31.467364193085814,2024-09-20 14:35:50.989898752+02:00
1726835751009.43,2.543478260869565,2.5543478260869565,11.315217391304348,3.0,0.8367188367188366,1195.1446006898382,-6.885496183206107,0.42748091603053434,1.3587786259541985,-0.280359820089955,-0.004497751124437781,0.13343328335832083,101.19293290851033,31.467364193085814,2024-09-20 14:35:51.009430016+02:00
1726835751028.9612,2.543478260869565,2.5543478260869565,11.33695652173913,3.0,0.8371628371628372,1194.5107398568018,-6.916030534351145,0.5190839694656488,1.618320610687023,-0.2848575712143928,0.013493253373313342,0.13193403298350825,101.19018430364304,31.467364193085814,2024-09-20 14:35:51.028961280+02:00
1726835751048.4924,2.532608695652174,2.5543478260869565,11.282608695652174,3.0,0.8376068376068376,1193.8775510204082,-7.022900763358779,0.47328244274809156,1.7099236641221374,-0.2833583208395802,-0.0014992503748125937,0.13793103448275862,101.19018430364304,31.467364193085814,2024-09-20 14:35:51.048492544+02:00
1726835751068.0237,2.5217391304347827,2.543478260869565,11.326086956521738,3.0,0.8376068376068376,1193.8775510204082,-6.99236641221374,0.41221374045801523,1.7709923664122136,-0.2788605697151424,-0.005997001499250375,0.13343328335832083,101.18743570137504,31.467364193085814,2024-09-20 14:35:51.068023808+02:00
1726835751087.555,2.532608695652174,2.5760869565217392,11.347826086956522,3.0,0.8380508380508379,1193.2450331125829,-7.236641221374046,0.061068702290076333,1.3129770992366412,-0.2773613193403298,-0.019490254872563718,0.1424287856071964,101.18743570137504,31.467364193085814,2024-09-20 14:35:51.087554816+02:00
1726835751107.0862,2.5217391304347827,2.5652173913043477,11.304347826086957,3.0,0.8380508380508379,1193.2450331125829,-7.267175572519084,0.13740458015267176,1.7251908396946565,-0.2848575712143928,-0.008995502248875561,0.13343328335832083,101.19018430364304,31.467364193085814,2024-09-20 14:35:51.107086080+02:00
1726835751126.6174,2.5869565217391304,2.5652173913043477,11.326086956521738,3.0,0.8384948384948384,1192.613185067514,-7.2824427480916025,0.22900763358778625,1.7251908396946565,-0.2773613193403298,-0.0074962518740629685,0.13043478260869565,101.18468710170632,31.467364193085814,2024-09-20 14:35:51.126617344+02:00
1726835751146.1487,2.5652173913043477,2.5652173913043477,11.369565217391305,3.0,0.8389388389388389,1191.982005821646,-7.541984732824427,0.8244274809160305,1.6946564885496183,-0.2788605697151424,0.004497751124437781,0.1424287856071964,101.19568151597689,31.467364193085814,2024-09-20 14:35:51.146148608+02:00
1726835751165.68,2.532608695652174,2.5760869565217392,11.304347826086957,3.0,0.8389388389388389,1191.982005821646,-7.358778625954198,0.7022900763358778,1.6335877862595418,-0.2863568215892054,0.0014992503748125937,0.13343328335832083,101.19293290851033,31.467364193085814,2024-09-20 14:35:51.165679872+02:00
1726835751185.2112,2.532608695652174,2.5543478260869565,11.33695652173913,3.0,0.8389388389388389,1191.982005821646,-7.190839694656488,0.9312977099236641,1.8931297709923662,-0.2818590704647676,0.0,0.12893553223388304,101.18468710170632,31.467364193085814,2024-09-20 14:35:51.185211136+02:00
1726835751204.7424,2.5543478260869565,2.5543478260869565,11.315217391304348,3.0,0.8389388389388389,1191.982005821646,-7.175572519083969,0.6259541984732824,1.5572519083969465,-0.2848575712143928,0.0014992503748125937,0.12893553223388304,101.18743570137504,31.467364193085814,2024-09-20 14:35:51.204742400+02:00
1726835751224.2737,2.532608695652174,2.543478260869565,11.304347826086957,3.0,0.8398268398268398,1190.721649484536,-7.526717557251908,0.7480916030534351,1.648854961832061,-0.2773613193403298,-0.010494752623688156,0.1394302848575712,101.19018430364304,31.467364193085814,2024-09-20 14:35:51.224273664+02:00
1726835751243.805,2.532608695652174,2.5543478260869565,11.369565217391305,3.0,0.8402708402708402,1190.092470277411,-7.633587786259541,0.564885496183206,1.4961832061068703,-0.2863568215892054,-0.01199400299850075,0.13793103448275862,101.19018430364304,31.467364193085814,2024-09-20 14:35:51.243804928+02:00
1726835751263.3362,2.532608695652174,2.5760869565217392,11.304347826086957,3.0,0.8402708402708402,1190.092470277411,-7.6183206106870225,0.7175572519083969,1.5877862595419847,-0.27436281859070466,-0.020989505247376312,0.136431784107946,101.19568151597689,31.467364193085814,2024-09-20 14:35:51.263336192+02:00
1726835751282.8674,2.5543478260869565,2.5652173913043477,11.380434782608695,3.0,0.8402708402708402,1190.092470277411,-7.587786259541985,0.6412213740458015,1.4809160305343512,-0.27586206896551724,-0.01649175412293853,0.13493253373313344,101.18743570137504,31.467364193085814,2024-09-20 14:35:51.282867456+02:00
1726835751302.3987,2.5652173913043477,2.5760869565217392,11.304347826086957,3.0,0.8407148407148406,1189.463955637708,-7.541984732824427,0.6106870229007634,1.282442748091603,-0.2833583208395802,-0.008995502248875561,0.13493253373313344,101.19018430364304,31.467364193085814,2024-09-20 14:35:51.302398720+02:00
1726835751321.93,2.5978260869565215,2.5217391304347827,11.33695652173913,3.0,0.8411588411588412,1188.8361045130641,-7.755725190839694,0.8549618320610687,1.7251908396946565,-0.2833583208395802,-0.0014992503748125937,0.13793103448275862,101.19018430364304,31.467364193085814,2024-09-20 14:35:51.321929984+02:00
1726835751341.4612,2.510869565217391,2.5543478260869565,11.347826086956522,3.0,0.8411588411588412,1188.8361045130641,-7.694656488549618,1.2213740458015268,1.7404580152671756,-0.27586206896551724,0.005997001499250375,0.136431784107946,101.19018430364304,31.467364193085814,2024-09-20 14:35:51.341461248+02:00
1726835751360.9924,2.532608695652174,2.5869565217391304,11.304347826086957,3.0,0.8411588411588412,1188.8361045130641,-7.267175572519084,0.7786259541984732,1.5267175572519083,-0.2848575712143928,0.0,0.13493253373313344,101.18468710170632,31.467364193085814,2024-09-20 14:35:51.360992512+02:00
1726835751380.5237,2.510869565217391,2.5543478260869565,11.369565217391305,3.0,0.8416028416028416,1188.208915853337,-7.801526717557252,1.297709923664122,1.8473282442748091,-0.27586206896551724,-0.0074962518740629685,0.13493253373313344,101.18468710170632,31.467364193085814,2024-09-20 14:35:51.380523776+02:00
1726835751400.055,2.532608695652174,2.5543478260869565,11.304347826086957,3.0,0.8416028416028416,1188.208915853337,-7.221374045801526,1.0381679389312977,1.8015267175572518,-0.27586206896551724,-0.005997001499250375,0.12443778110944527,101.18468710170632,31.467364193085814,2024-09-20 14:35:51.400055040+02:00
1726835751419.5862,2.5978260869565215,2.532608695652174,11.33695652173913,3.0,0.8416028416028416,1188.208915853337,-7.32824427480916,0.7480916030534351,2.213740458015267,-0.280359820089955,0.0074962518740629685,0.1409295352323838,101.19018430364304,31.467364193085814,2024-09-20 14:35:51.419586304+02:00
1726835751439.1174,2.5652173913043477,2.543478260869565,11.326086956521738,3.0,0.8420468420468419,1187.5823886105986,-7.633587786259541,0.564885496183206,1.5877862595419847,-0.280359820089955,-0.013493253373313342,0.13793103448275862,101.18468710170632,31.467364193085814,2024-09-20 14:35:51.439117312+02:00
1726835751458.6487,2.4782608695652173,2.5978260869565215,11.304347826086957,3.0,0.8416028416028416,1188.208915853337,-7.511450381679389,1.114503816793893,1.7557251908396947,-0.27586206896551724,-0.0074962518740629685,0.1424287856071964,101.19018430364304,31.467364193085814,2024-09-20 14:35:51.458648576+02:00
1726835751478.18,2.5217391304347827,2.5543478260869565,11.369565217391305,3.0,0.8420468420468419,1187.5823886105986,-7.770992366412213,1.3435114503816794,1.66412213740458,-0.2788605697151424,-0.0074962518740629685,0.13343328335832083,101.19293290851033,31.467364193085814,2024-09-20 14:35:51.478179840+02:00
1726835751497.7112,2.532608695652174,2.5760869565217392,11.304347826086957,3.0,0.8420468420468419,1187.5823886105986,-7.404580152671755,0.7175572519083969,1.8015267175572518,-0.27586206896551724,0.013493253373313342,0.13043478260869565,101.19018430364304,31.467364193085814,2024-09-20 14:35:51.497711104+02:00
1726835751517.2424,2.7065217391304346,2.467391304347826,11.315217391304348,3.0,0.8420468420468419,1187.5823886105986,-7.49618320610687,0.3511450381679389,1.66412213740458,-0.2788605697151424,-0.0014992503748125937,0.13193403298350825,101.19293290851033,31.467364193085814,2024-09-20 14:35:51.517242368+02:00
1726835751536.7737,2.4130434782608696,2.5978260869565215,11.380434782608695,3.0,0.8420468420468419,1187.5823886105986,-7.969465648854961,1.7709923664122136,1.9236641221374045,-0.2893553223388306,0.0014992503748125937,0.12743628185907047,101.19549147475959,31.482531906757504,2024-09-20 14:35:51.536773632+02:00
1726835751556.305,2.5652173913043477,2.5760869565217392,11.347826086956522,3.0,0.8420468420468419,1187.5823886105986,-6.534351145038167,1.1450381679389312,0.8091603053435115,-0.2818590704647676,-0.008995502248875561,0.13793103448275862,101.19274280291437,31.482531906757504,2024-09-20 14:35:51.556304896+02:00
1726835751575.8362,2.5760869565217392,2.543478260869565,11.33695652173913,3.0,0.8424908424908425,1186.9565217391305,-7.3893129770992365,1.129770992366412,1.8778625954198473,-0.2818590704647676,-0.0029985007496251873,0.136431784107946,101.1844968029751,31.482531906757504,2024-09-20 14:35:51.575836160+02:00
1726835751595.3674,2.467391304347826,2.5543478260869565,11.195652173913043,3.0,0.8424908424908425,1186.9565217391305,-7.206106870229007,1.66412213740458,1.9236641221374045,-0.2773613193403298,-0.0074962518740629685,0.136431784107946,101.19274280291437,31.482531906757504,2024-09-20 14:35:51.595367424+02:00
1726835751614.8987,2.641304347826087,2.5760869565217392,11.347826086956522,3.0,0.8424908424908425,1186.9565217391305,-7.770992366412213,0.549618320610687,1.4809160305343512,-0.27436281859070466,-0.008995502248875561,0.1394302848575712,101.19549147475959,31.482531906757504,2024-09-20 14:35:51.614898688+02:00
1726835751634.43,2.5217391304347827,2.5543478260869565,11.315217391304348,3.0,0.8424908424908425,1186.9565217391305,-7.572519083969465,1.984732824427481,2.1068702290076335,-0.27586206896551724,-0.0029985007496251873,0.1424287856071964,101.19274280291437,31.482531906757504,2024-09-20 14:35:51.634429952+02:00
1726835751653.9612,2.467391304347826,2.5652173913043477,11.33695652173913,3.0,0.8424908424908425,1186.9565217391305,-8.091603053435113,1.0381679389312977,1.450381679389313,-0.272863568215892,0.008995502248875561,0.12893553223388304,101.19274280291437,31.482531906757504,2024-09-20 14:35:51.653961216+02:00
1726835751673.4924,2.5,2.5543478260869565,11.315217391304348,3.0,0.8424908424908425,1186.9565217391305,-7.0534351145038165,0.1984732824427481,1.66412213740458,-0.27586206896551724,-0.0029985007496251873,0.1394302848575712,101.19274280291437,31.482531906757504,2024-09-20 14:35:51.673492480+02:00
1726835751693.0237,2.532608695652174,2.5543478260869565,11.304347826086957,3.0,0.8424908424908425,1186.9565217391305,-7.3893129770992365,0.33587786259541985,1.6030534351145038,-0.2773613193403298,-0.0074962518740629685,0.12593703148425786,101.1844968029751,31.482531906757504,2024-09-20 14:35:51.693023744+02:00
1726835751712.555,2.5652173913043477,2.5652173913043477,11.33695652173913,3.0,0.8424908424908425,1186.9565217391305,-7.038167938931298,0.6870229007633587,1.5572519083969465,-0.2848575712143928,-0.008995502248875561,0.13193403298350825,101.19549147475959,31.482531906757504,2024-09-20 14:35:51.712555008+02:00
1726835751732.0862,2.5217391304347827,2.5543478260869565,11.33695652173913,3.0,0.8424908424908425,1186.9565217391305,-7.312977099236641,0.6412213740458015,1.3282442748091603,-0.2773613193403298,-0.01199400299850075,0.1424287856071964,101.19274280291437,31.482531906757504,2024-09-20 14:35:51.732086272+02:00
1726835751751.6174,2.4782608695652173,2.5978260869565215,11.347826086956522,3.0,0.8424908424908425,1186.9565217391305,-7.32824427480916,0.183206106870229,1.618320610687023,-0.2863568215892054,-0.010494752623688156,0.13043478260869565,101.18999413366853,31.482531906757504,2024-09-20 14:35:51.751617536+02:00
1726835751771.1487,2.543478260869565,2.5760869565217392,11.358695652173912,3.0,0.8424908424908425,1186.9565217391305,-7.633587786259541,0.42748091603053434,1.618320610687023,-0.280359820089955,-0.008995502248875561,0.12893553223388304,101.19274280291437,31.482531906757504,2024-09-20 14:35:51.771148800+02:00
1726835751790.68,2.532608695652174,2.5543478260869565,11.271739130434783,3.0,0.8420468420468419,1187.5823886105986,-7.435114503816793,0.061068702290076333,1.648854961832061,-0.2833583208395802,-0.0029985007496251873,0.13493253373313344,101.19274280291437,31.482531906757504,2024-09-20 14:35:51.790679808+02:00
1726835751810.2112,2.5760869565217392,2.5652173913043477,11.380434782608695,3.0,0.8420468420468419,1187.5823886105986,-7.480916030534351,0.3053435114503817,1.6793893129770991,-0.280359820089955,0.0,0.12893553223388304,101.18999413366853,31.482531906757504,2024-09-20 14:35:51.810211072+02:00
1726835751829.7424,2.5760869565217392,2.543478260869565,11.326086956521738,3.0,0.8420468420468419,1187.5823886105986,-7.465648854961832,0.2748091603053435,1.7404580152671756,-0.280359820089955,0.0029985007496251873,0.12893553223388304,101.18724546702212,31.482531906757504,2024-09-20 14:35:51.829742336+02:00
1726835751849.2737,2.5760869565217392,2.5978260869565215,11.358695652173912,3.0,0.8424908424908425,1186.9565217391305,-7.343511450381679,0.8396946564885496,1.4198473282442747,-0.280359820089955,0.0014992503748125937,0.13493253373313344,101.18999413366853,31.482531906757504,2024-09-20 14:35:51.849273600+02:00
1726835751868.805,2.5,2.5869565217391304,11.391304347826086,3.0,0.8420468420468419,1187.5823886105986,-7.7251908396946565,0.8396946564885496,1.7557251908396947,-0.2773613193403298,0.01649175412293853,0.1394302848575712,101.1844968029751,31.482531906757504,2024-09-20 14:35:51.868804864+02:00
1726835751888.3362,2.4782608695652173,2.5652173913043477,11.282608695652174,3.0,0.8420468420468419,1187.5823886105986,-7.938931297709924,0.2748091603053435,1.7709923664122136,-0.27136431784107945,-0.0074962518740629685,0.12743628185907047,101.18999413366853,31.482531906757504,2024-09-20 14:35:51.888336128+02:00
1726835751907.8674,2.5652173913043477,2.532608695652174,11.33695652173913,3.0,0.8420468420468419,1187.5823886105986,-7.709923664122137,0.04580152671755725,1.8015267175572518,-0.2818590704647676,-0.010494752623688156,0.13793103448275862,101.19274280291437,31.482531906757504,2024-09-20 14:35:51.907867392+02:00
1726835751927.3987,2.608695652173913,2.543478260869565,11.315217391304348,3.0,0.8420468420468419,1187.5823886105986,-7.587786259541985,-0.07633587786259542,1.6335877862595418,-0.27586206896551724,-0.014992503748125937,0.136431784107946,101.19274280291437,31.482531906757504,2024-09-20 14:35:51.927398656+02:00
1726835751946.93,2.608695652173913,2.5652173913043477,11.304347826086957,3.0,0.8424908424908425,1186.9565217391305,-7.343511450381679,0.9618320610687022,1.9083969465648853,-0.2788605697151424,-0.0074962518740629685,0.13043478260869565,101.18724546702212,31.482531906757504,2024-09-20 14:35:51.946929920+02:00
1726835751966.4612,2.5978260869565215,2.5652173913043477,11.33695652173913,3.0,0.8420468420468419,1187.5823886105986,-7.038167938931298,1.1450381679389312,1.8473282442748091,-0.2773613193403298,0.0029985007496251873,0.13043478260869565,101.19549147475959,31.482531906757504,2024-09-20 14:35:51.966461184+02:00
1726835751985.9924,2.543478260869565,2.5652173913043477,11.293478260869565,3.0,0.8420468420468419,1187.5823886105986,-7.358778625954198,1.3435114503816794,1.4961832061068703,-0.2833583208395802,-0.004497751124437781,0.1394302848575712,101.18999413366853,31.482531906757504,2024-09-20 14:35:51.985992448+02:00
1726835752005.5237,2.510869565217391,2.532608695652174,11.304347826086957,3.0,0.8416028416028416,1188.208915853337,-7.435114503816793,0.9312977099236641,1.7404580152671756,-0.2863568215892054,-0.005997001499250375,0.12893553223388304,101.18724546702212,31.482531906757504,2024-09-20 14:35:52.005523712+02:00
1726835752025.055,2.5652173913043477,2.532608695652174,11.641304347826086,3.0,0.8416028416028416,1188.208915853337,-6.671755725190839,1.7557251908396947,1.2366412213740459,-0.2788605697151424,0.013493253373313342,0.13343328335832083,101.19549147475959,31.482531906757504,2024-09-20 14:35:52.025054976+02:00
1726835752044.5862,2.5978260869565215,2.652173913043478,11.032608695652174,3.0,0.8420468420468419,1187.5823886105986,-7.175572519083969,0.32061068702290074,0.9770992366412213,-0.2788605697151424,-0.008995502248875561,0.13493253373313344,101.19549147475959,31.482531906757504,2024-09-20 14:35:52.044586240+02:00
1726835752064.1174,2.543478260869565,2.4782608695652173,11.41304347826087,3.0,0.8420468420468419,1187.5823886105986,-8.320610687022901,2.9618320610687023,2.427480916030534,-0.2863568215892054,-0.0029985007496251873,0.13793103448275862,101.19824014920422,31.482531906757504,2024-09-20 14:35:52.064117504+02:00
1726835752083.6487,2.402173913043478,2.5978260869565215,11.315217391304348,3.0,0.8416028416028416,1188.208915853337,-7.022900763358779,1.1450381679389312,0.8549618320610687,-0.2788605697151424,-0.014992503748125937,0.13493253373313344,101.19274280291437,31.482531906757504,2024-09-20 14:35:52.083648768+02:00
1726835752103.18,2.619565217391304,2.5652173913043477,11.380434782608695,3.0,0.8416028416028416,1188.208915853337,-7.404580152671755,1.297709923664122,1.8625954198473282,-0.2833583208395802,0.005997001499250375,0.13193403298350825,101.20098882624826,31.482531906757504,2024-09-20 14:35:52.103180032+02:00
1726835752122.7112,2.5652173913043477,2.510869565217391,11.326086956521738,3.0,0.8416028416028416,1188.208915853337,-7.145038167938931,0.7938931297709924,1.4198473282442747,-0.28785607196401797,-0.005997001499250375,0.136431784107946,101.19549147475959,31.482531906757504,2024-09-20 14:35:52.122711296+02:00
1726835752142.2424,2.5652173913043477,2.608695652173913,11.206521739130434,3.0,0.8416028416028416,1188.208915853337,-7.419847328244274,0.7480916030534351,1.8625954198473282,-0.280359820089955,-0.0014992503748125937,0.12743628185907047,101.18999413366853,31.482531906757504,2024-09-20 14:35:52.142242304+02:00
1726835752161.7737,2.467391304347826,2.543478260869565,11.456521739130434,3.0,0.8416028416028416,1188.208915853337,-7.419847328244274,1.099236641221374,1.8625954198473282,-0.2788605697151424,0.0,0.1409295352323838,101.19274280291437,31.482531906757504,2024-09-20 14:35:52.161773568+02:00
1726835752181.305,2.532608695652174,2.5869565217391304,11.271739130434783,3.0,0.8416028416028416,1188.208915853337,-7.221374045801526,0.8854961832061068,1.5419847328244274,-0.2773613193403298,-0.004497751124437781,0.13793103448275862,101.19274280291437,31.482531906757504,2024-09-20 14:35:52.181304832+02:00
1726835752200.8362,2.510869565217391,2.5652173913043477,11.33695652173913,3.0,0.8416028416028416,1188.208915853337,-7.557251908396946,0.6259541984732824,1.7251908396946565,-0.2773613193403298,-0.004497751124437781,0.13343328335832083,101.19274280291437,31.482531906757504,2024-09-20 14:35:52.200836096+02:00
1726835752220.3674,2.543478260869565,2.543478260869565,11.293478260869565,3.0,0.8416028416028416,1188.208915853337,-7.603053435114504,0.4427480916030534,1.816793893129771,-0.27436281859070466,-0.01649175412293853,0.12443778110944527,101.18724546702212,31.482531906757504,2024-09-20 14:35:52.220367360+02:00
1726835752239.8987,2.5217391304347827,2.5652173913043477,11.369565217391305,3.0,0.8416028416028416,1188.208915853337,-7.465648854961832,0.5801526717557252,2.229007633587786,-0.27136431784107945,-0.013493253373313342,0.136431784107946,101.1844968029751,31.482531906757504,2024-09-20 14:35:52.239898624+02:00
1726835752259.43,2.5760869565217392,2.5869565217391304,11.33695652173913,3.0,0.8411588411588412,1188.8361045130641,-7.32824427480916,0.366412213740458,1.7404580152671756,-0.27436281859070466,-0.0074962518740629685,0.13193403298350825,101.18999413366853,31.482531906757504,2024-09-20 14:35:52.259429888+02:00
1726835752278.9612,2.543478260869565,2.5652173913043477,11.304347826086957,3.0,0.8416028416028416,1188.208915853337,-7.450381679389313,0.9618320610687022,1.7709923664122136,-0.2818590704647676,-0.004497751124437781,0.13193403298350825,101.18724546702212,31.482531906757504,2024-09-20 14:35:52.278961152+02:00
1726835752298.4924,2.4891304347826084,2.5543478260869565,11.326086956521738,3.0,0.8416028416028416,1188.208915853337,-7.541984732824427,0.9618320610687022,1.6793893129770991,-0.2788605697151424,0.004497751124437781,0.13193403298350825,101.19274280291437,31.482531906757504,2024-09-20 14:35:52.298492416+02:00
1726835752318.0237,2.5869565217391304,2.5543478260869565,11.315217391304348,3.0,0.8420468420468419,1187.5823886105986,-7.66412213740458,0.8549618320610687,1.9083969465648853,-0.2833583208395802,-0.0074962518740629685,0.136431784107946,101.18999413366853,31.482531906757504,2024-09-20 14:35:52.318023680+02:00
1726835752337.555,2.5760869565217392,2.5543478260869565,11.326086956521738,3.0,0.8420468420468419,1187.5823886105986,-7.603053435114504,0.6412213740458015,1.816793893129771,-0.2773613193403298,-0.0014992503748125937,0.13043478260869565,101.18999413366853,31.482531906757504,2024-09-20 14:35:52.337554944+02:00
1726835752357.0862,2.5543478260869565,2.5543478260869565,11.315217391304348,3.0,0.8420468420468419,1187.5823886105986,-7.343511450381679,1.2366412213740459,1.2061068702290076,-0.2788605697151424,0.0,0.13493253373313344,101.18724546702212,31.482531906757504,2024-09-20 14:35:52.357086208+02:00
1726835752376.6174,2.510869565217391,2.5652173913043477,11.326086956521738,3.0,0.8424908424908425,1186.9565217391305,-7.312977099236641,1.0076335877862594,1.7099236641221374,-0.27586206896551724,0.01199400299850075,0.12293853073463268,101.19549147475959,31.482531906757504,2024-09-20 14:35:52.376617472+02:00
1726835752396.1487,2.5217391304347827,2.5543478260869565,11.326086956521738,3.0,0.8424908424908425,1186.9565217391305,-7.312977099236641,0.916030534351145,1.648854961832061,-0.272863568215892,-0.0014992503748125937,0.13793103448275862,101.18999413366853,31.482531906757504,2024-09-20 14:35:52.396148736+02:00
1726835752415.68,2.5760869565217392,2.5652173913043477,11.347826086956522,3.0,0.8424908424908425,1186.9565217391305,-7.221374045801526,0.564885496183206,1.1908396946564885,-0.2788605697151424,-0.008995502248875561,0.13193403298350825,101.19274280291437,31.482531906757504,2024-09-20 14:35:52.415680+02:00
1726835752435.2112,2.543478260869565,2.5652173913043477,11.304347826086957,3.0,0.8424908424908425,1186.9565217391305,-7.511450381679389,0.916030534351145,1.4198473282442747,-0.2863568215892054,-0.01199400299850075,0.13043478260869565,101.18999413366853,31.482531906757504,2024-09-20 14:35:52.435211264+02:00
1726835752454.7424,2.532608695652174,2.5652173913043477,11.347826086956522,3.0,0.842934842934843,1186.3313141954175,-7.419847328244274,0.916030534351145,1.465648854961832,-0.2773613193403298,0.010494752623688156,0.13793103448275862,101.1844968029751,31.482531906757504,2024-09-20 14:35:52.454742528+02:00
1726835752474.2737,2.543478260869565,2.5652173913043477,11.326086956521738,3.0,0.842934842934843,1186.3313141954175,-7.312977099236641,0.7022900763358778,1.648854961832061,-0.27436281859070466,-0.010494752623688156,0.12743628185907047,101.18724546702212,31.482531906757504,2024-09-20 14:35:52.474273792+02:00
1726835752493.805,2.543478260869565,2.5652173913043477,11.326086956521738,3.0,0.8433788433788433,1185.7067649381418,-7.358778625954198,0.5954198473282443,1.5572519083969465,-0.2848575712143928,-0.008995502248875561,0.136431784107946,101.18999413366853,31.482531906757504,2024-09-20 14:35:52.493805056+02:00
1726835752513.3362,2.5652173913043477,2.5543478260869565,11.326086956521738,3.0,0.8433788433788433,1185.7067649381418,-7.0534351145038165,0.8702290076335878,1.4809160305343512,-0.2788605697151424,-0.0074962518740629685,0.1409295352323838,101.19274280291437,31.482531906757504,2024-09-20 14:35:52.513336064+02:00
1726835752532.8674,2.5543478260869565,2.5543478260869565,11.358695652173912,3.0,0.8433788433788433,1185.7067649381418,-7.267175572519084,1.0229007633587786,1.465648854961832,-0.2818590704647676,-0.004497751124437781,0.12893553223388304,101.19274280291437,31.482531906757504,2024-09-20 14:35:52.532867328+02:00
1726835752552.3987,2.543478260869565,2.5869565217391304,11.304347826086957,3.0,0.8438228438228438,1185.0828729281768,-7.236641221374046,0.6106870229007634,1.6946564885496183,-0.2833583208395802,-0.010494752623688156,0.13793103448275862,101.19549147475959,31.482531906757504,2024-09-20 14:35:52.552398592+02:00
1726835752571.93,2.5543478260869565,2.5652173913043477,11.358695652173912,3.0,0.8438228438228438,1185.0828729281768,-7.221374045801526,0.6870229007633587,1.3435114503816794,-0.280359820089955,-0.01199400299850075,0.136431784107946,101.1844968029751,31.482531906757504,2024-09-20 14:35:52.571929856+02:00
1726835752591.4612,2.532608695652174,2.5869565217391304,11.326086956521738,3.0,0.8442668442668443,1184.4596371285827,-7.3893129770992365,0.7175572519083969,1.6946564885496183,-0.2848575712143928,-0.008995502248875561,0.13493253373313344,101.18724546702212,31.482531906757504,2024-09-20 14:35:52.591461120+02:00
1726835752610.9924,2.5652173913043477,2.5760869565217392,11.315217391304348,3.0,0.8442668442668443,1184.4596371285827,-7.3893129770992365,0.7786259541984732,1.9541984732824427,-0.2788605697151424,-0.005997001499250375,0.13043478260869565,101.18724546702212,31.482531906757504,2024-09-20 14:35:52.610992384+02:00
1726835752630.5237,2.5652173913043477,2.5652173913043477,11.315217391304348,3.0,0.8447108447108446,1183.8370565045993,-7.480916030534351,1.0534351145038168,2.091603053435114,-0.27436281859070466,-0.0014992503748125937,0.13343328335832083,101.19274280291437,31.482531906757504,2024-09-20 14:35:52.630523648+02:00
1726835752650.055,2.532608695652174,2.5652173913043477,11.282608695652174,3.0,0.8451548451548451,1183.2151300236408,-7.7251908396946565,0.6717557251908397,1.7251908396946565,-0.2788605697151424,-0.004497751124437781,0.13043478260869565,101.1844968029751,31.482531906757504,2024-09-20 14:35:52.650054912+02:00
1726835752669.5862,2.5652173913043477,2.5760869565217392,11.358695652173912,3.0,0.8451548451548451,1183.2151300236408,-7.633587786259541,0.38167938931297707,1.9541984732824427,-0.2848575712143928,0.0014992503748125937,0.1409295352323838,101.19274280291437,31.482531906757504,2024-09-20 14:35:52.669586176+02:00
1726835752689.1174,2.5543478260869565,2.5652173913043477,11.282608695652174,3.0,0.8455988455988456,1182.5938566552902,-7.2824427480916025,0.5954198473282443,1.9389312977099236,-0.2848575712143928,0.0074962518740629685,0.13493253373313344,101.19274280291437,31.482531906757504,2024-09-20 14:35:52.689117440+02:00
1726835752708.6487,2.532608695652174,2.5652173913043477,11.33695652173913,3.0,0.846042846042846,1181.9732353712936,-7.145038167938931,1.297709923664122,1.7557251908396947,-0.2773613193403298,-0.010494752623688156,0.12743628185907047,101.1844968029751,31.482531906757504,2024-09-20 14:35:52.708648704+02:00
1726835752728.18,2.5869565217391304,2.5760869565217392,11.304347826086957,3.0,0.8464868464868464,1181.3532651455548,-7.541984732824427,0.9770992366412213,1.5725190839694656,-0.2788605697151424,0.010494752623688156,0.1409295352323838,101.19824014920422,31.482531906757504,2024-09-20 14:35:52.728179968+02:00
1726835752747.7112,2.532608695652174,2.543478260869565,11.358695652173912,3.0,0.8464868464868464,1181.3532651455548,-7.404580152671755,1.129770992366412,1.7862595419847327,-0.2893553223388306,-0.01199400299850075,0.13493253373313344,101.19274280291437,31.482531906757504,2024-09-20 14:35:52.747711232+02:00
1726835752767.2424,2.5217391304347827,2.5760869565217392,11.33695652173913,3.0,0.846930846930847,1180.7339449541284,-7.679389312977099,1.3740458015267174,1.3435114503816794,-0.27436281859070466,-0.017991004497751123,0.1424287856071964,101.18999413366853,31.482531906757504,2024-09-20 14:35:52.767242496+02:00
1726835752786.7737,2.4891304347826084,2.5760869565217392,11.304347826086957,3.0,0.8473748473748474,1180.115273775216,-7.297709923664121,1.7709923664122136,0.8244274809160305,-0.27436281859070466,0.0029985007496251873,0.13343328335832083,101.19274280291437,31.482531906757504,2024-09-20 14:35:52.786773760+02:00
1726835752806.305,2.5978260869565215,2.5978260869565215,11.358695652173912,3.0,0.8478188478188476,1179.4972505891596,-7.251908396946565,1.2213740458015268,1.4809160305343512,-0.2848575712143928,-0.0014992503748125937,0.13493253373313344,101.18999413366853,31.482531906757504,2024-09-20 14:35:52.806305024+02:00
1726835752825.8362,2.5760869565217392,2.5652173913043477,11.33695652173913,3.0,0.8478188478188476,1179.4972505891596,-7.66412213740458,1.3587786259541985,1.6335877862595418,-0.27136431784107945,-0.008995502248875561,0.14392803598200898,101.19274280291437,31.482531906757504,2024-09-20 14:35:52.825836288+02:00
1726835752845.3674,2.5217391304347827,2.5652173913043477,11.315217391304348,3.0,0.8482628482628483,1178.879874378435,-7.908396946564885,1.9694656488549618,1.7709923664122136,-0.2818590704647676,-0.0014992503748125937,0.13043478260869565,101.1844968029751,31.482531906757504,2024-09-20 14:35:52.845367552+02:00
1726835752864.8987,2.5,2.532608695652174,11.358695652173912,3.0,0.8487068487068486,1178.2631441276485,-7.66412213740458,1.984732824427481,1.66412213740458,-0.27436281859070466,0.0074962518740629685,0.136431784107946,101.19274280291437,31.482531906757504,2024-09-20 14:35:52.864898560+02:00
1726835752884.43,2.532608695652174,2.5760869565217392,11.315217391304348,3.0,0.8487068487068486,1178.2631441276485,-7.572519083969465,1.0076335877862594,1.83206106870229,-0.2773613193403298,-0.01199400299850075,0.13493253373313344,101.19274280291437,31.482531906757504,2024-09-20 14:35:52.884429824+02:00
1726835752903.9612,2.532608695652174,2.5652173913043477,11.326086956521738,3.0,0.849150849150849,1177.6470588235295,-7.816793893129771,1.1603053435114503,1.6793893129770991,-0.2788605697151424,-0.0074962518740629685,0.13793103448275862,101.18724546702212,31.482531906757504,2024-09-20 14:35:52.903961088+02:00
1726835752923.4924,2.5760869565217392,2.5543478260869565,11.315217391304348,3.0,0.8495948495948495,1177.0316174549257,-7.435114503816793,0.6412213740458015,1.7251908396946565,-0.2848575712143928,-0.01199400299850075,0.12743628185907047,101.18999413366853,31.482531906757504,2024-09-20 14:35:52.923492352+02:00
1726835752943.0237,2.5652173913043477,2.543478260869565,11.358695652173912,3.0,0.85003885003885,1176.416819012797,-7.419847328244274,0.6870229007633587,1.5877862595419847,-0.280359820089955,-0.0074962518740629685,0.13493253373313344,101.19549147475959,31.482531906757504,2024-09-20 14:35:52.943023616+02:00
1726835752962.555,2.543478260869565,2.5652173913043477,11.33695652173913,3.0,0.8495948495948495,1177.0316174549257,-7.480916030534351,1.0381679389312977,1.8015267175572518,-0.2848575712143928,-0.005997001499250375,0.13493253373313344,101.18724546702212,31.482531906757504,2024-09-20 14:35:52.962554880+02:00
1726835752982.0862,2.4565217391304346,2.5543478260869565,11.304347826086957,3.0,0.8504828504828504,1175.8026624902116,-7.419847328244274,1.6030534351145038,1.4961832061068703,-0.2788605697151424,-0.01199400299850075,0.13193403298350825,101.18999413366853,31.482531906757504,2024-09-20 14:35:52.982086144+02:00
1726835753001.6174,2.4891304347826084,2.5760869565217392,11.33695652173913,3.0,0.8509268509268509,1175.1891468823376,-7.7251908396946565,1.3282442748091603,1.6030534351145038,-0.27436281859070466,-0.004497751124437781,0.13793103448275862,101.19549147475959,31.482531906757504,2024-09-20 14:35:53.001617408+02:00
1726835753021.1487,2.5652173913043477,2.5652173913043477,11.304347826086957,3.0,0.8513708513708512,1174.5762711864409,-7.450381679389313,1.129770992366412,1.5267175572519083,-0.27436281859070466,-0.0074962518740629685,0.12593703148425786,101.18724546702212,31.482531906757504,2024-09-20 14:35:53.021148672+02:00
1726835753040.68,2.5543478260869565,2.543478260869565,11.315217391304348,3.0,0.8518148518148518,1173.9640344018765,-7.633587786259541,0.48854961832061067,1.282442748091603,-0.2893553223388306,-0.008995502248875561,0.13793103448275862,101.19274280291437,31.482531906757504,2024-09-20 14:35:53.040679936+02:00
1726835753060.2112,2.5217391304347827,2.5978260869565215,11.315217391304348,3.0,0.8522588522588522,1173.352435530086,-7.374045801526718,0.7938931297709924,1.6030534351145038,-0.280359820089955,0.0014992503748125937,0.1394302848575712,101.18724546702212,31.482531906757504,2024-09-20 14:35:53.060211200+02:00
1726835753079.7424,2.5217391304347827,2.5652173913043477,11.326086956521738,3.0,0.8527028527028527,1172.74147357459,-7.190839694656488,0.48854961832061067,1.7709923664122136,-0.2788605697151424,-0.014992503748125937,0.1394302848575712,101.18724546702212,31.482531906757504,2024-09-20 14:35:53.079742464+02:00
1726835753099.2737,2.4782608695652173,2.5760869565217392,11.347826086956522,3.0,0.8531468531468532,1172.1311475409834,-7.450381679389313,0.549618320610687,1.6335877862595418,-0.27436281859070466,-0.0074962518740629685,0.1394302848575712,101.1844968029751,31.482531906757504,2024-09-20 14:35:53.099273728+02:00
1726835753118.805,2.510869565217391,2.5760869565217392,11.33695652173913,3.0,0.8535908535908537,1171.521456436931,-7.2824427480916025,0.7175572519083969,2.16793893129771,-0.280359820089955,-0.013493253373313342,0.136431784107946,101.18999413366853,31.482531906757504,2024-09-20 14:35:53.118804992+02:00
1726835753138.3362,2.5543478260869565,2.532608695652174,11.304347826086957,3.0,0.8540348540348541,1170.91239927216,-7.893129770992366,0.2900763358778626,1.6946564885496183,-0.2773613193403298,-0.0014992503748125937,0.136431784107946,101.19274280291437,31.482531906757504,2024-09-20 14:35:53.138336256+02:00
1726835753157.8674,2.510869565217391,2.5543478260869565,11.293478260869565,3.0,0.8544788544788545,1170.3039750584567,-7.603053435114504,0.24427480916030533,1.9694656488549618,-0.2833583208395802,-0.004497751124437781,0.13793103448275862,101.19274280291437,31.482531906757504,2024-09-20 14:35:53.157867520+02:00
1726835753177.3987,2.532608695652174,2.5543478260869565,11.33695652173913,3.0,0.8549228549228549,1169.6961828096598,-7.480916030534351,0.13740458015267176,1.6793893129770991,-0.2848575712143928,-0.0014992503748125937,0.1394302848575712,101.18999413366853,31.482531906757504,2024-09-20 14:35:53.177398784+02:00
1726835753196.93,2.5652173913043477,2.5869565217391304,11.315217391304348,3.0,0.8553668553668554,1169.0890215416557,-7.221374045801526,0.6259541984732824,1.8778625954198473,-0.2788605697151424,-0.004497751124437781,0.12593703148425786,101.19274280291437,31.482531906757504,2024-09-20 14:35:53.196930048+02:00
1726835753216.4612,2.510869565217391,2.5652173913043477,11.326086956521738,3.0,0.8558108558108558,1168.4824902723735,-7.099236641221374,-0.015267175572519083,1.5877862595419847,-0.2773613193403298,0.0014992503748125937,0.13493253373313344,101.18999413366853,31.482531906757504,2024-09-20 14:35:53.216461056+02:00
1726835753235.9924,2.5760869565217392,2.5543478260869565,11.315217391304348,3.0,0.8562548562548563,1167.8765880217786,-7.7251908396946565,0.061068702290076333,2.0610687022900764,-0.2833583208395802,-0.014992503748125937,0.13043478260869565,101.18724546702212,31.482531906757504,2024-09-20 14:35:53.235992320+02:00
1726835753255.5237,2.5869565217391304,2.5217391304347827,11.369565217391305,3.0,0.8566988566988567,1167.2713138118684,-7.6183206106870225,0.5038167938931297,1.5725190839694656,-0.27586206896551724,-0.010494752623688156,0.1409295352323838,101.18724546702212,31.482531906757504,2024-09-20 14:35:53.255523584+02:00
1726835753275.055,2.510869565217391,2.5978260869565215,11.304347826086957,3.0,0.8571428571428572,1166.6666666666665,-7.32824427480916,0.6106870229007634,1.465648854961832,-0.2788605697151424,-0.0074962518740629685,0.13193403298350825,101.19274280291437,31.482531906757504,2024-09-20 14:35:53.275054848+02:00
1726835753294.5862,2.4891304347826084,2.5543478260869565,11.315217391304348,3.0,0.8575868575868577,1166.0626456122184,-7.7251908396946565,0.8549618320610687,1.5267175572519083,-0.27586206896551724,-0.0074962518740629685,0.12893553223388304,101.18999413366853,31.482531906757504,2024-09-20 14:35:53.294586112+02:00
1726835753314.1174,2.5760869565217392,2.5869565217391304,11.358695652173912,3.0,0.8575868575868577,1166.0626456122184,-7.236641221374046,0.6412213740458015,1.5572519083969465,-0.2818590704647676,0.004497751124437781,0.12893553223388304,101.18999413366853,31.482531906757504,2024-09-20 14:35:53.314117376+02:00
1726835753333.6487,2.543478260869565,2.5543478260869565,11.315217391304348,3.0,0.8584748584748586,1164.856477889837,-7.312977099236641,0.6564885496183206,1.8473282442748091,-0.280359820089955,-0.0074962518740629685,0.13793103448275862,101.19549147475959,31.482531906757504,2024-09-20 14:35:53.333648640+02:00
1726835753353.18,2.5869565217391304,2.5760869565217392,11.33695652173913,3.0,0.8593628593628594,1163.6528028933092,-7.755725190839694,0.564885496183206,1.6946564885496183,-0.280359820089955,-0.0029985007496251873,0.13343328335832083,101.18999413366853,31.482531906757504,2024-09-20 14:35:53.353179904+02:00
1726835753372.7112,2.5,2.5760869565217392,11.347826086956522,3.0,0.8598068598068599,1163.0518977536792,-7.603053435114504,0.7175572519083969,1.5877862595419847,-0.2893553223388306,-0.004497751124437781,0.13193403298350825,101.19274280291437,31.482531906757504,2024-09-20 14:35:53.372711168+02:00
1726835753392.2424,2.5217391304347827,2.5978260869565215,11.304347826086957,3.0,0.8602508602508603,1162.4516129032259,-7.114503816793893,0.7786259541984732,1.7557251908396947,-0.272863568215892,0.013493253373313342,0.13493253373313344,101.19274280291437,31.482531906757504,2024-09-20 14:35:53.392242432+02:00
1726835753411.7737,2.5543478260869565,2.543478260869565,11.33695652173913,3.0,0.8606948606948607,1161.8519473819963,-7.66412213740458,0.7938931297709924,1.816793893129771,-0.27586206896551724,-0.01199400299850075,0.1424287856071964,101.18999413366853,31.482531906757504,2024-09-20 14:35:53.411773696+02:00
1726835753431.305,2.5760869565217392,2.5652173913043477,11.315217391304348,3.0,0.8615828615828617,1160.6544704972944,-7.404580152671755,0.41221374045801523,1.8931297709923662,-0.280359820089955,-0.0074962518740629685,0.1424287856071964,101.18724546702212,31.482531906757504,2024-09-20 14:35:53.431304960+02:00
1726835753450.8362,2.543478260869565,2.5652173913043477,11.293478260869565,3.0,0.862026862026862,1160.056657223796,-7.49618320610687,0.8396946564885496,1.9694656488549618,-0.2833583208395802,-0.017991004497751123,0.13343328335832083,101.19274280291437,31.482531906757504,2024-09-20 14:35:53.450836224+02:00
1726835753470.3674,2.5543478260869565,2.5978260869565215,11.358695652173912,3.0,0.8624708624708626,1159.4594594594594,-7.541984732824427,1.099236641221374,1.9083969465648853,-0.2818590704647676,-0.0014992503748125937,0.13493253373313344,101.19274280291437,31.482531906757504,2024-09-20 14:35:53.470367488+02:00
1726835753489.8987,2.510869565217391,2.5869565217391304,11.25,3.0,0.8629148629148631,1158.8628762541805,-7.175572519083969,1.4198473282442747,1.9083969465648853,-0.28785607196401797,-0.0014992503748125937,0.13343328335832083,101.18724546702212,31.482531906757504,2024-09-20 14:35:53.489898752+02:00
1726835753509.43,2.5217391304347827,2.5543478260869565,11.358695652173912,3.0,0.8638028638028639,1157.6715497301464,-7.145038167938931,1.6030534351145038,1.7404580152671756,-0.280359820089955,0.0074962518740629685,0.13493253373313344,101.1844968029751,31.482531906757504,2024-09-20 14:35:53.509430016+02:00
1726835753528.9612,2.5543478260869565,2.5543478260869565,11.315217391304348,3.0,0.8642468642468644,1157.076804520935,-7.358778625954198,0.9465648854961831,1.7862595419847327,-0.2848575712143928,0.0014992503748125937,0.136431784107946,101.18534957471222,31.48758781189681,2024-09-20 14:35:53.528961280+02:00
1726835753548.4924,2.5760869565217392,2.5543478260869565,11.282608695652174,3.0,0.8651348651348651,1155.8891454965358,-7.2824427480916025,0.7175572519083969,2.183206106870229,-0.27136431784107945,0.0014992503748125937,0.13493253373313344,101.19359564162946,31.48758781189681,2024-09-20 14:35:53.548492544+02:00
1726835753568.0237,2.5869565217391304,2.5543478260869565,11.347826086956522,3.0,0.8655788655788657,1155.2962298025134,-7.541984732824427,0.6717557251908397,1.4961832061068703,-0.2818590704647676,0.005997001499250375,0.13793103448275862,101.19359564162946,31.48758781189681,2024-09-20 14:35:53.568023808+02:00
1726835753587.555,2.4782608695652173,2.5543478260869565,11.33695652173913,3.0,0.8664668664668664,1154.1122213681783,-7.236641221374046,1.2671755725190839,1.5572519083969465,-0.2818590704647676,-0.010494752623688156,0.13193403298350825,101.19359564162946,31.48758781189681,2024-09-20 14:35:53.587554816+02:00
1726835753607.0862,2.5543478260869565,2.5760869565217392,11.326086956521738,3.0,0.8669108669108669,1153.5211267605634,-6.946564885496183,0.916030534351145,2.0,-0.280359820089955,-0.008995502248875561,0.136431784107946,101.19359564162946,31.48758781189681,2024-09-20 14:35:53.607086080+02:00
1726835753626.6174,2.5760869565217392,2.5760869565217392,11.33695652173913,3.0,0.8677988677988678,1152.3407521105141,-7.435114503816793,0.4580152671755725,1.8473282442748091,-0.2788605697151424,-0.01199400299850075,0.1409295352323838,101.18809826108519,31.48758781189681,2024-09-20 14:35:53.626617344+02:00
1726835753646.1487,2.5543478260869565,2.543478260869565,11.315217391304348,3.0,0.8682428682428683,1151.7514702122219,-7.66412213740458,0.6870229007633587,1.648854961832061,-0.2773613193403298,-0.019490254872563718,0.13043478260869565,101.18534957471222,31.48758781189681,2024-09-20 14:35:53.646148608+02:00
1726835753665.68,2.543478260869565,2.5652173913043477,11.304347826086957,3.0,0.8682428682428683,1151.7514702122219,-7.572519083969465,0.8549618320610687,1.4961832061068703,-0.27436281859070466,-0.005997001499250375,0.1394302848575712,101.19359564162946,31.48758781189681,2024-09-20 14:35:53.665679872+02:00
1726835753685.2112,2.5869565217391304,2.5869565217391304,11.369565217391305,3.0,0.8695748695748695,1149.9872351289252,-7.572519083969465,0.7786259541984732,1.8015267175572518,-0.2833583208395802,0.0029985007496251873,0.136431784107946,101.1908469500576,31.48758781189681,2024-09-20 14:35:53.685211136+02:00
1726835753704.7424,2.543478260869565,2.5760869565217392,11.33695652173913,3.0,0.87001887001887,1149.4003572339882,-7.49618320610687,0.366412213740458,1.5419847328244274,-0.29235382308845576,0.005997001499250375,0.1409295352323838,101.19634433580073,31.48758781189681,2024-09-20 14:35:53.704742400+02:00
1726835753724.2737,2.5978260869565215,2.5543478260869565,11.315217391304348,3.0,0.8704628704628705,1148.814078041316,-7.557251908396946,0.5343511450381679,1.618320610687023,-0.27436281859070466,-0.0029985007496251873,0.13493253373313344,101.1908469500576,31.48758781189681,2024-09-20 14:35:53.724273664+02:00
1726835753743.805,2.532608695652174,2.5543478260869565,11.315217391304348,3.0,0.8713508713508713,1147.6433121019109,-7.572519083969465,1.0534351145038168,2.1526717557251906,-0.2848575712143928,-0.004497751124437781,0.136431784107946,101.1908469500576,31.48758781189681,2024-09-20 14:35:53.743804928+02:00
1726835753763.3362,2.5543478260869565,2.5760869565217392,11.315217391304348,3.0,0.8717948717948718,1147.0588235294117,-7.206106870229007,0.6870229007633587,1.4045801526717556,-0.272863568215892,-0.010494752623688156,0.13193403298350825,101.19359564162946,31.48758781189681,2024-09-20 14:35:53.763336192+02:00
1726835753782.8674,2.5760869565217392,2.5652173913043477,11.282608695652174,3.0,0.8722388722388723,1146.4749300076355,-7.603053435114504,0.9312977099236641,1.465648854961832,-0.2788605697151424,-0.014992503748125937,0.12593703148425786,101.1908469500576,31.48758781189681,2024-09-20 14:35:53.782867456+02:00
1726835753802.3987,2.532608695652174,2.5760869565217392,11.358695652173912,3.0,0.8731268731268732,1145.3089244851258,-7.190839694656488,1.6030534351145038,1.5572519083969465,-0.280359820089955,-0.013493253373313342,0.12893553223388304,101.1908469500576,31.48758781189681,2024-09-20 14:35:53.802398720+02:00
1726835753821.93,2.543478260869565,2.5760869565217392,11.33695652173913,3.0,0.8735708735708736,1144.7268106734434,-7.694656488549618,0.9923664122137404,1.9236641221374045,-0.27586206896551724,-0.008995502248875561,0.13043478260869565,101.19359564162946,31.48758781189681,2024-09-20 14:35:53.821929984+02:00
1726835753841.4612,2.4891304347826084,2.5543478260869565,11.315217391304348,3.0,0.8744588744588745,1143.5643564356435,-7.923664122137405,1.099236641221374,1.8778625954198473,-0.2818590704647676,0.0014992503748125937,0.13193403298350825,101.19359564162946,31.48758781189681,2024-09-20 14:35:53.841461248+02:00
1726835753860.9924,2.543478260869565,2.543478260869565,11.271739130434783,3.0,0.8749028749028749,1142.9840142095916,-7.587786259541985,0.8854961832061068,1.9236641221374045,-0.2818590704647676,-0.0014992503748125937,0.12743628185907047,101.1908469500576,31.48758781189681,2024-09-20 14:35:53.860992512+02:00
1726835753880.5237,2.5652173913043477,2.5543478260869565,11.347826086956522,3.0,0.8753468753468754,1142.4042607151914,-7.66412213740458,0.9312977099236641,1.8625954198473282,-0.2773613193403298,0.0029985007496251873,0.13493253373313344,101.18809826108519,31.48758781189681,2024-09-20 14:35:53.880523776+02:00
1726835753900.055,2.5652173913043477,2.5652173913043477,11.293478260869565,3.0,0.8757908757908757,1141.8250950570343,-7.49618320610687,0.8396946564885496,1.816793893129771,-0.2863568215892054,0.0014992503748125937,0.136431784107946,101.18534957471222,31.48758781189681,2024-09-20 14:35:53.900055040+02:00
1726835753919.5862,2.5978260869565215,2.510869565217391,11.293478260869565,3.0,0.8762348762348763,1141.2465163415252,-7.480916030534351,1.0381679389312977,1.83206106870229,-0.2848575712143928,0.0,0.136431784107946,101.18809826108519,31.48758781189681,2024-09-20 14:35:53.919586304+02:00
1726835753939.1174,2.5652173913043477,2.543478260869565,11.358695652173912,3.0,0.8766788766788766,1140.6685236768803,-7.541984732824427,1.2213740458015268,1.648854961832061,-0.2773613193403298,-0.008995502248875561,0.13193403298350825,101.18809826108519,31.48758781189681,2024-09-20 14:35:53.939117312+02:00
1726835753958.6487,2.5217391304347827,2.5760869565217392,11.326086956521738,3.0,0.8771228771228771,1140.0911161731208,-7.526717557251908,1.5267175572519083,1.2519083969465647,-0.2818590704647676,-0.01199400299850075,0.136431784107946,101.1908469500576,31.48758781189681,2024-09-20 14:35:53.958648576+02:00
1726835753978.18,2.543478260869565,2.5760869565217392,11.271739130434783,3.0,0.8771228771228771,1140.0911161731208,-7.740458015267175,1.297709923664122,1.129770992366412,-0.2773613193403298,0.005997001499250375,0.136431784107946,101.18809826108519,31.48758781189681,2024-09-20 14:35:53.978179840+02:00
1726835753997.7112,2.543478260869565,2.5543478260869565,11.369565217391305,3.0,0.8775668775668777,1139.5142929420692,-7.587786259541985,1.4198473282442747,1.099236641221374,-0.280359820089955,-0.020989505247376312,0.1424287856071964,101.19359564162946,31.48758781189681,2024-09-20 14:35:53.997711104+02:00
1726835754017.2424,2.5543478260869565,2.5869565217391304,11.358695652173912,3.0,0.8775668775668777,1139.5142929420692,-7.1603053435114505,1.0534351145038168,1.1603053435114503,-0.27436281859070466,0.004497751124437781,0.12893553223388304,101.1908469500576,31.48758781189681,2024-09-20 14:35:54.017242368+02:00
1726835754036.7737,2.5543478260869565,2.5543478260869565,11.304347826086957,3.0,0.8784548784548785,1138.3623957543593,-7.9541984732824424,0.8244274809160305,1.5877862595419847,-0.280359820089955,-0.013493253373313342,0.13343328335832083,101.19359564162946,31.48758781189681,2024-09-20 14:35:54.036773632+02:00
1726835754056.305,2.5217391304347827,2.5543478260869565,11.33695652173913,3.0,0.8784548784548785,1138.3623957543593,-7.557251908396946,1.2213740458015268,1.7557251908396947,-0.2818590704647676,0.0,0.13343328335832083,101.18809826108519,31.48758781189681,2024-09-20 14:35:54.056304896+02:00
1726835754075.8362,2.5217391304347827,2.5652173913043477,11.282608695652174,3.0,0.878898878898879,1137.7873200303106,-7.587786259541985,1.0076335877862594,1.7251908396946565,-0.280359820089955,-0.0074962518740629685,0.1394302848575712,101.18534957471222,31.48758781189681,2024-09-20 14:35:54.075836160+02:00
1726835754095.3674,2.510869565217391,2.5652173913043477,11.33695652173913,3.0,0.8793428793428792,1137.2128250441808,-7.694656488549618,0.7175572519083969,1.8015267175572518,-0.280359820089955,-0.008995502248875561,0.13493253373313344,101.1908469500576,31.48758781189681,2024-09-20 14:35:54.095367424+02:00
1726835754114.8987,2.4891304347826084,2.5760869565217392,11.358695652173912,3.0,0.8793428793428792,1137.2128250441808,-7.526717557251908,0.7938931297709924,2.0,-0.26836581709145424,-0.0074962518740629685,0.136431784107946,101.1908469500576,31.48758781189681,2024-09-20 14:35:54.114898688+02:00
1726835754134.43,2.5217391304347827,2.5652173913043477,11.304347826086957,3.0,0.8797868797868797,1136.6389099167297,-7.6183206106870225,0.6412213740458015,2.2900763358778624,-0.27586206896551724,0.008995502248875561,0.13793103448275862,101.18809826108519,31.48758781189681,2024-09-20 14:35:54.134429952+02:00
1726835754153.9612,2.532608695652174,2.543478260869565,11.26086956521739,3.0,0.8797868797868797,1136.6389099167297,-7.908396946564885,-0.061068702290076333,2.6412213740458013,-0.2773613193403298,-0.013493253373313342,0.13343328335832083,101.1908469500576,31.48758781189681,2024-09-20 14:35:54.153961216+02:00
1726835754173.4924,2.5869565217391304,2.5652173913043477,11.358695652173912,3.0,0.8797868797868797,1136.6389099167297,-7.98473282442748,-0.22900763358778625,2.610687022900763,-0.2773613193403298,-0.017991004497751123,0.13343328335832083,101.18809826108519,31.48758781189681,2024-09-20 14:35:54.173492480+02:00
1726835754193.0237,2.543478260869565,2.5652173913043477,11.326086956521738,3.0,0.8802308802308801,1136.065573770492,-7.877862595419847,-0.22900763358778625,2.3053435114503817,-0.28785607196401797,-0.005997001499250375,0.1394302848575712,101.19359564162946,31.48758781189681,2024-09-20 14:35:54.193023744+02:00
1726835754212.555,2.5652173913043477,2.5760869565217392,11.369565217391305,3.0,0.8802308802308801,1136.065573770492,-7.633587786259541,-0.13740458015267176,2.5801526717557253,-0.27436281859070466,0.0014992503748125937,0.13793103448275862,101.1908469500576,31.48758781189681,2024-09-20 14:35:54.212555008+02:00
