Shimmer_8280_Timestamp_Unix_CAL,Shimmer_8280_Accel_LN_X_CAL,Shimmer_8280_Accel_LN_Y_CAL,Shimmer_8280_Accel_LN_Z_CAL,Shimmer_8280_GSR_Range_CAL,Shimmer_8280_GSR_Skin_Conductance_CAL,Shimmer_8280_GSR_Skin_Resistance_CAL,Shimmer_8280_Gyro_X_CAL,Shimmer_8280_Gyro_Y_CAL,Shimmer_8280_Gyro_Z_CAL,Shimmer_8280_Mag_X_CAL,Shimmer_8280_Mag_Y_CAL,Shimmer_8280_Mag_Z_CAL,Shimmer_8280_Pressure_BMP280_CAL,Shimmer_8280_Temperature_BMP280_CAL,adjusted_time
1726836852072.296,5.108695652173913,5.3478260869565215,10.17391304347826,1.0,8.313869637911449,120.2809333742708,-7.480916030534351,0.8244274809160305,1.618320610687023,-0.328335832083958,-0.13043478260869565,0.272863568215892,99.5383233608369,22.25598996282206,2024-09-20 14:54:12.072295936+02:00
1726836852091.8274,5.108695652173913,5.369565217391304,10.130434782608695,1.0,8.313869637911449,120.2809333742708,-7.49618320610687,0.9618320610687022,1.5572519083969465,-0.32533733133433285,-0.13343328335832083,0.26686656671664166,99.54373917507381,22.25598996282206,2024-09-20 14:54:12.091827456+02:00
1726836852111.3586,5.076086956521739,5.326086956521739,10.152173913043478,0.0,2.3873307455397033,418.8778625954194,-7.3893129770992365,0.916030534351145,1.450381679389313,-0.33433283358320837,-0.12593703148425786,0.2593703148425787,99.54373917507381,22.25598996282206,2024-09-20 14:54:12.111358720+02:00
1726836852130.89,5.108695652173913,5.358695652173913,10.130434782608695,0.0,2.3873307455397033,418.8778625954194,-7.297709923664121,0.732824427480916,1.3282442748091603,-0.33433283358320837,-0.12593703148425786,0.26686656671664166,99.5383233608369,22.25598996282206,2024-09-20 14:54:12.130889984+02:00
1726836852150.4211,5.108695652173913,5.33695652173913,10.152173913043478,0.0,2.3873307455397033,418.8778625954194,-7.465648854961832,0.8244274809160305,1.5114503816793892,-0.3298350824587706,-0.12143928035982009,0.272863568215892,99.54373917507381,22.25598996282206,2024-09-20 14:54:12.150421248+02:00
1726836852169.9524,5.119565217391304,5.3478260869565215,10.152173913043478,0.0,2.3873307455397033,418.8778625954194,-7.526717557251908,0.8244274809160305,1.4961832061068703,-0.3298350824587706,-0.11544227886056971,0.2773613193403298,99.53561545750706,22.25598996282206,2024-09-20 14:54:12.169952512+02:00
1726836852189.4836,5.0978260869565215,5.326086956521739,10.16304347826087,0.0,2.3873307455397033,418.8778625954194,-7.465648854961832,0.8396946564885496,1.8015267175572518,-0.335832083958021,-0.11244377811094453,0.26836581709145424,99.53561545750706,22.25598996282206,2024-09-20 14:54:12.189483520+02:00
1726836852209.015,5.0978260869565215,5.358695652173913,10.141304347826086,1.0,2.3611696085563683,423.51891891891887,-7.480916030534351,0.7633587786259541,1.9236641221374045,-0.3268365817091454,-0.1199400299850075,0.26686656671664166,99.53561545750706,22.25598996282206,2024-09-20 14:54:12.209014784+02:00
1726836852228.546,5.119565217391304,5.358695652173913,10.141304347826086,1.0,2.3611696085563683,423.51891891891887,-7.49618320610687,0.9923664122137404,2.229007633587786,-0.32533733133433285,-0.1169415292353823,0.2623688155922039,99.53019965842464,22.25598996282206,2024-09-20 14:54:12.228545792+02:00
1726836852248.0774,5.108695652173913,5.358695652173913,10.17391304347826,1.0,2.3611696085563683,423.51891891891887,-7.801526717557252,0.7938931297709924,1.7099236641221374,-0.3268365817091454,-0.12743628185907047,0.2638680659670165,99.53290755670298,22.25598996282206,2024-09-20 14:54:12.248077312+02:00
1726836852267.6086,5.076086956521739,5.3478260869565215,10.17391304347826,1.0,2.3611696085563683,423.51891891891887,-7.679389312977099,1.129770992366412,1.6946564885496183,-0.328335832083958,-0.12893553223388304,0.27136431784107945,99.53561545750706,22.25598996282206,2024-09-20 14:54:12.267608576+02:00
1726836852287.14,5.065217391304348,5.3478260869565215,10.152173913043478,1.0,2.3611696085563683,423.51891891891887,-7.694656488549618,1.0534351145038168,1.66412213740458,-0.335832083958021,-0.12443778110944527,0.27586206896551724,99.54373917507381,22.25598996282206,2024-09-20 14:54:12.287139840+02:00
1726836852306.6711,5.08695652173913,5.326086956521739,10.17391304347826,2.0,2.353846153846154,424.83660130718954,-7.343511450381679,0.7786259541984732,1.2671755725190839,-0.33433283358320837,-0.1184407796101949,0.25337331334332835,99.53019965842464,22.25598996282206,2024-09-20 14:54:12.306671104+02:00
1726836852326.2024,5.119565217391304,5.326086956521739,10.16304347826087,2.0,2.353846153846154,424.83660130718954,-7.66412213740458,0.8549618320610687,1.7557251908396947,-0.3298350824587706,-0.1169415292353823,0.26836581709145424,99.54103126669249,22.25598996282206,2024-09-20 14:54:12.326202368+02:00
1726836852345.7336,5.076086956521739,5.3478260869565215,10.152173913043478,2.0,2.355311355311355,424.5723172628305,-7.6183206106870225,1.0534351145038168,1.7404580152671756,-0.31784107946026985,-0.11244377811094453,0.27136431784107945,99.5383233608369,22.25598996282206,2024-09-20 14:54:12.345733632+02:00
1726836852365.265,5.108695652173913,5.358695652173913,10.141304347826086,2.0,2.355311355311355,424.5723172628305,-7.435114503816793,0.9770992366412213,1.9083969465648853,-0.335832083958021,-0.12743628185907047,0.2698650674662669,99.5383233608369,22.25598996282206,2024-09-20 14:54:12.365264896+02:00
1726836852384.796,5.0978260869565215,5.358695652173913,10.16304347826087,2.0,2.355311355311355,424.5723172628305,-7.755725190839694,1.099236641221374,2.0,-0.3328335832083958,-0.12143928035982009,0.26836581709145424,99.54373917507381,22.25598996282206,2024-09-20 14:54:12.384795904+02:00
1726836852404.3274,5.076086956521739,5.369565217391304,10.141304347826086,2.0,2.355311355311355,424.5723172628305,-7.358778625954198,0.8091603053435115,1.9694656488549618,-0.3268365817091454,-0.13193403298350825,0.26686656671664166,99.53019965842464,22.25598996282206,2024-09-20 14:54:12.404327424+02:00
1726836852423.8586,5.08695652173913,5.369565217391304,10.130434782608695,2.0,2.353846153846154,424.83660130718954,-7.312977099236641,0.9312977099236641,1.66412213740458,-0.335832083958021,-0.12893553223388304,0.2698650674662669,99.53561545750706,22.25598996282206,2024-09-20 14:54:12.423858688+02:00
1726836852443.39,5.08695652173913,5.358695652173913,10.16304347826087,2.0,2.355311355311355,424.5723172628305,-7.66412213740458,0.8702290076335878,1.5877862595419847,-0.3373313343328336,-0.12443778110944527,0.2608695652173913,99.53290755670298,22.25598996282206,2024-09-20 14:54:12.443389952+02:00
1726836852462.9211,5.076086956521739,5.326086956521739,10.16304347826087,2.0,2.353846153846154,424.83660130718954,-7.572519083969465,1.2671755725190839,1.6030534351145038,-0.3268365817091454,-0.13043478260869565,0.26836581709145424,99.53290755670298,22.25598996282206,2024-09-20 14:54:12.462921216+02:00
1726836852482.4524,5.076086956521739,5.3478260869565215,10.17391304347826,2.0,2.355311355311355,424.5723172628305,-7.358778625954198,1.0229007633587786,1.5267175572519083,-0.32233883058470764,-0.12593703148425786,0.2698650674662669,99.53290755670298,22.25598996282206,2024-09-20 14:54:12.482452480+02:00
1726836852501.9836,5.0978260869565215,5.33695652173913,10.16304347826087,2.0,2.355311355311355,424.5723172628305,-7.1603053435114505,0.8244274809160305,1.7251908396946565,-0.3313343328335832,-0.1199400299850075,0.26836581709145424,99.53561545750706,22.25598996282206,2024-09-20 14:54:12.501983744+02:00
1726836852521.515,5.0978260869565215,5.33695652173913,10.141304347826086,2.0,2.353846153846154,424.83660130718954,-7.404580152671755,0.8396946564885496,1.5114503816793892,-0.32533733133433285,-0.1184407796101949,0.2653673163418291,99.53290755670298,22.25598996282206,2024-09-20 14:54:12.521515008+02:00
1726836852541.046,5.108695652173913,5.33695652173913,10.17391304347826,2.0,2.353846153846154,424.83660130718954,-7.709923664122137,1.0229007633587786,1.6793893129770991,-0.33433283358320837,-0.10944527736131934,0.2653673163418291,99.53290755670298,22.25598996282206,2024-09-20 14:54:12.541046016+02:00
1726836852560.5774,5.0978260869565215,5.33695652173913,10.141304347826086,2.0,2.355311355311355,424.5723172628305,-7.465648854961832,1.0076335877862594,1.2061068702290076,-0.3328335832083958,-0.1169415292353823,0.26686656671664166,99.53561545750706,22.25598996282206,2024-09-20 14:54:12.560577280+02:00
1726836852580.1086,5.0978260869565215,5.33695652173913,10.16304347826087,2.0,2.353846153846154,424.83660130718954,-7.1603053435114505,0.6106870229007634,1.4961832061068703,-0.335832083958021,-0.12893553223388304,0.26836581709145424,99.54103126669249,22.25598996282206,2024-09-20 14:54:12.580108544+02:00
1726836852599.64,5.076086956521739,5.358695652173913,10.130434782608695,2.0,2.353846153846154,424.83660130718954,-7.49618320610687,0.7633587786259541,1.5114503816793892,-0.3268365817091454,-0.13193403298350825,0.2578710644677661,99.53019965842464,22.25598996282206,2024-09-20 14:54:12.599639808+02:00
1726836852619.1711,5.08695652173913,5.326086956521739,10.16304347826087,2.0,2.353846153846154,424.83660130718954,-7.694656488549618,0.7633587786259541,1.7404580152671756,-0.3238380809595202,-0.136431784107946,0.26686656671664166,99.53290755670298,22.25598996282206,2024-09-20 14:54:12.619171072+02:00
1726836852638.7024,5.0978260869565215,5.326086956521739,10.130434782608695,2.0,2.355311355311355,424.5723172628305,-7.465648854961832,0.549618320610687,1.5572519083969465,-0.335832083958021,-0.12443778110944527,0.2638680659670165,99.5383233608369,22.25598996282206,2024-09-20 14:54:12.638702336+02:00
1726836852658.2336,5.108695652173913,5.33695652173913,10.17391304347826,2.0,2.355311355311355,424.5723172628305,-7.221374045801526,0.6717557251908397,1.6335877862595418,-0.3298350824587706,-0.11544227886056971,0.2638680659670165,99.53561545750706,22.25598996282206,2024-09-20 14:54:12.658233600+02:00
1726836852677.765,5.119565217391304,5.358695652173913,10.141304347826086,2.0,2.355311355311355,424.5723172628305,-7.465648854961832,0.8244274809160305,1.5267175572519083,-0.335832083958021,-0.11094452773613193,0.2593703148425787,99.53290755670298,22.25598996282206,2024-09-20 14:54:12.677764864+02:00
1726836852697.296,5.08695652173913,5.358695652173913,10.097826086956522,2.0,2.355311355311355,424.5723172628305,-7.419847328244274,1.0687022900763359,1.6335877862595418,-0.33433283358320837,-0.12293853073463268,0.26836581709145424,99.53290755670298,22.25598996282206,2024-09-20 14:54:12.697295872+02:00
1726836852716.8274,5.119565217391304,5.304347826086956,10.195652173913043,2.0,2.355311355311355,424.5723172628305,-7.572519083969465,1.2366412213740459,1.618320610687023,-0.3268365817091454,-0.13043478260869565,0.26686656671664166,99.53290755670298,22.25598996282206,2024-09-20 14:54:12.716827392+02:00
1726836852736.3586,5.108695652173913,5.358695652173913,10.141304347826086,2.0,2.355311355311355,424.5723172628305,-7.32824427480916,0.6870229007633587,1.7404580152671756,-0.328335832083958,-0.1199400299850075,0.26686656671664166,99.52478386944517,22.25598996282206,2024-09-20 14:54:12.736358656+02:00
1726836852755.89,5.119565217391304,5.315217391304348,10.141304347826086,2.0,2.355311355311355,424.5723172628305,-7.648854961832061,1.1755725190839694,1.8625954198473282,-0.3328335832083958,-0.12443778110944527,0.2593703148425787,99.53290755670298,22.25598996282206,2024-09-20 14:54:12.755889920+02:00
1726836852775.4211,5.119565217391304,5.391304347826087,10.17391304347826,2.0,2.353846153846154,424.83660130718954,-7.1603053435114505,1.0687022900763359,2.1526717557251906,-0.3268365817091454,-0.12893553223388304,0.272863568215892,99.54103126669249,22.25598996282206,2024-09-20 14:54:12.775421184+02:00
1726836852794.9524,5.043478260869565,5.358695652173913,10.130434782608695,2.0,2.355311355311355,424.5723172628305,-7.374045801526718,0.6717557251908397,1.6793893129770991,-0.328335832083958,-0.13043478260869565,0.2623688155922039,99.54103126669249,22.25598996282206,2024-09-20 14:54:12.794952448+02:00
1726836852814.4836,5.08695652173913,5.304347826086956,10.152173913043478,2.0,2.355311355311355,424.5723172628305,-7.572519083969465,0.8091603053435115,1.9236641221374045,-0.3313343328335832,-0.12593703148425786,0.26836581709145424,99.53290755670298,22.25598996282206,2024-09-20 14:54:12.814483712+02:00
1726836852834.015,5.108695652173913,5.369565217391304,10.16304347826087,2.0,2.355311355311355,424.5723172628305,-7.404580152671755,0.42748091603053434,1.3129770992366412,-0.3298350824587706,-0.12143928035982009,0.26686656671664166,99.53561545750706,22.25598996282206,2024-09-20 14:54:12.834014976+02:00
1726836852853.546,5.08695652173913,5.358695652173913,10.130434782608695,2.0,2.356776556776557,424.30836182778984,-7.450381679389313,1.0076335877862594,1.8778625954198473,-0.3298350824587706,-0.11094452773613193,0.2623688155922039,99.53290755670298,22.25598996282206,2024-09-20 14:54:12.853545984+02:00
1726836852873.0774,5.141304347826087,5.33695652173913,10.184782608695652,2.0,2.356776556776557,424.30836182778984,-7.2824427480916025,0.5343511450381679,1.7251908396946565,-0.32533733133433285,-0.1184407796101949,0.2623688155922039,99.54373917507381,22.25598996282206,2024-09-20 14:54:12.873077504+02:00
1726836852892.6086,5.119565217391304,5.33695652173913,10.152173913043478,2.0,2.356776556776557,424.30836182778984,-7.32824427480916,0.6870229007633587,1.7404580152671756,-0.3313343328335832,-0.1169415292353823,0.2638680659670165,99.53290755670298,22.25598996282206,2024-09-20 14:54:12.892608768+02:00
1726836852912.14,5.08695652173913,5.315217391304348,10.184782608695652,2.0,2.356776556776557,424.30836182778984,-7.541984732824427,1.3129770992366412,1.9541984732824427,-0.328335832083958,-0.10644677661169415,0.26686656671664166,99.53290755670298,22.25598996282206,2024-09-20 14:54:12.912139776+02:00
1726836852931.6711,5.0978260869565215,5.3478260869565215,10.206521739130434,2.0,2.355311355311355,424.5723172628305,-7.419847328244274,0.8091603053435115,1.618320610687023,-0.32533733133433285,-0.13043478260869565,0.2638680659670165,99.53290755670298,22.25598996282206,2024-09-20 14:54:12.931671040+02:00
1726836852951.2024,5.119565217391304,5.358695652173913,10.152173913043478,2.0,2.355311355311355,424.5723172628305,-7.572519083969465,1.083969465648855,1.9083969465648853,-0.32533733133433285,-0.1409295352323838,0.272863568215892,99.53019965842464,22.25598996282206,2024-09-20 14:54:12.951202304+02:00
1726836852970.7336,5.032608695652174,5.315217391304348,10.08695652173913,2.0,2.355311355311355,424.5723172628305,-7.9541984732824424,1.8931297709923662,2.045801526717557,-0.3328335832083958,-0.12593703148425786,0.2608695652173913,99.54103126669249,22.25598996282206,2024-09-20 14:54:12.970733568+02:00
1726836852990.265,5.119565217391304,5.326086956521739,10.184782608695652,2.0,2.356776556776557,424.30836182778984,-7.0534351145038165,0.3969465648854962,1.648854961832061,-0.3268365817091454,-0.13043478260869565,0.2623688155922039,101.18137271185387,32.01845947115216,2024-09-20 14:54:12.990264832+02:00
1726836853009.796,5.119565217391304,5.4021739130434785,10.16304347826087,2.0,2.356776556776557,424.30836182778984,-7.526717557251908,1.2213740458015268,2.0,-0.33433283358320837,-0.11394302848575712,0.2578710644677661,101.17587083507163,32.01845947115216,2024-09-20 14:54:13.009795840+02:00
1726836853029.3274,5.076086956521739,5.33695652173913,10.108695652173912,2.0,2.356776556776557,424.30836182778984,-7.3893129770992365,0.9770992366412213,1.8931297709923662,-0.3313343328335832,-0.11394302848575712,0.2608695652173913,101.1731199005861,32.01845947115216,2024-09-20 14:54:13.029327360+02:00
1726836853048.8586,5.119565217391304,5.326086956521739,10.141304347826086,2.0,2.356776556776557,424.30836182778984,-7.541984732824427,0.4580152671755725,1.7404580152671756,-0.33433283358320837,-0.1169415292353823,0.25337331334332835,101.16761803942619,32.01845947115216,2024-09-20 14:54:13.048858624+02:00
1726836853068.39,5.08695652173913,5.358695652173913,10.16304347826087,2.0,2.356776556776557,424.30836182778984,-7.816793893129771,0.7786259541984732,1.465648854961832,-0.335832083958021,-0.11244377811094453,0.2638680659670165,101.1731199005861,32.01845947115216,2024-09-20 14:54:13.068389888+02:00
1726836853087.9211,5.065217391304348,5.33695652173913,10.16304347826087,2.0,2.356776556776557,424.30836182778984,-7.297709923664121,0.47328244274809156,1.7251908396946565,-0.3313343328335832,-0.1169415292353823,0.2623688155922039,101.16761803942619,32.01845947115216,2024-09-20 14:54:13.087921152+02:00
1726836853107.4524,5.0978260869565215,5.358695652173913,10.17391304347826,2.0,2.356776556776557,424.30836182778984,-7.8473282442748085,0.7786259541984732,1.5419847328244274,-0.3313343328335832,-0.1184407796101949,0.26836581709145424,101.1731199005861,32.01845947115216,2024-09-20 14:54:13.107452416+02:00
1726836853126.9836,5.054347826086956,5.33695652173913,10.141304347826086,2.0,2.355311355311355,424.5723172628305,-7.526717557251908,1.0229007633587786,1.6335877862595418,-0.3313343328335832,-0.12443778110944527,0.2638680659670165,101.1731199005861,32.01845947115216,2024-09-20 14:54:13.126983680+02:00
1726836853146.515,5.141304347826087,5.326086956521739,10.152173913043478,2.0,2.355311355311355,424.5723172628305,-7.312977099236641,0.12213740458015267,1.465648854961832,-0.3238380809595202,-0.12893553223388304,0.26686656671664166,101.1731199005861,32.01845947115216,2024-09-20 14:54:13.146514944+02:00
1726836853166.046,5.130434782608695,5.326086956521739,10.141304347826086,2.0,2.355311355311355,424.5723172628305,-7.648854961832061,1.450381679389313,1.4198473282442747,-0.32533733133433285,-0.12593703148425786,0.26836581709145424,101.1731199005861,32.01845947115216,2024-09-20 14:54:13.166045952+02:00
1726836853185.5774,5.054347826086956,5.33695652173913,10.17391304347826,2.0,2.356776556776557,424.30836182778984,-7.587786259541985,0.9770992366412213,1.5267175572519083,-0.3298350824587706,-0.12143928035982009,0.26686656671664166,101.16761803942619,32.01845947115216,2024-09-20 14:54:13.185577472+02:00
1726836853205.1086,5.076086956521739,5.380434782608695,10.152173913043478,2.0,2.356776556776557,424.30836182778984,-7.1603053435114505,1.114503816793893,1.7099236641221374,-0.335832083958021,-0.12143928035982009,0.2653673163418291,101.17036896870428,32.01845947115216,2024-09-20 14:54:13.205108736+02:00
1726836853224.64,5.076086956521739,5.326086956521739,10.17391304347826,2.0,2.356776556776557,424.30836182778984,-7.129770992366412,1.0381679389312977,1.6030534351145038,-0.335832083958021,-0.11394302848575712,0.26836581709145424,101.1731199005861,32.01845947115216,2024-09-20 14:54:13.224640+02:00
1726836853244.1711,5.119565217391304,5.326086956521739,10.141304347826086,2.0,2.356776556776557,424.30836182778984,-7.2824427480916025,0.7480916030534351,1.5419847328244274,-0.328335832083958,-0.12143928035982009,0.2698650674662669,101.17587083507163,32.01845947115216,2024-09-20 14:54:13.244171264+02:00
1726836853263.7024,5.141304347826087,5.293478260869565,10.141304347826086,2.0,2.356776556776557,424.30836182778984,-7.267175572519084,0.9923664122137404,1.5267175572519083,-0.3298350824587706,-0.12443778110944527,0.26836581709145424,101.16761803942619,32.01845947115216,2024-09-20 14:54:13.263702272+02:00
1726836853283.2336,5.0978260869565215,5.358695652173913,10.141304347826086,2.0,2.356776556776557,424.30836182778984,-7.7251908396946565,0.9465648854961831,1.465648854961832,-0.3298350824587706,-0.1199400299850075,0.26836581709145424,101.17862177216088,32.01845947115216,2024-09-20 14:54:13.283233536+02:00
1726836853302.765,5.065217391304348,5.33695652173913,10.16304347826087,2.0,2.356776556776557,424.30836182778984,-7.679389312977099,1.1908396946564885,1.7251908396946565,-0.328335832083958,-0.12893553223388304,0.2638680659670165,101.17587083507163,32.01845947115216,2024-09-20 14:54:13.302764800+02:00
1726836853322.296,5.08695652173913,5.33695652173913,10.141304347826086,2.0,2.356776556776557,424.30836182778984,-7.511450381679389,0.9312977099236641,1.9083969465648853,-0.3268365817091454,-0.136431784107946,0.2593703148425787,101.17036896870428,32.01845947115216,2024-09-20 14:54:13.322295808+02:00
1726836853341.8274,5.08695652173913,5.33695652173913,10.097826086956522,2.0,2.356776556776557,424.30836182778984,-7.49618320610687,0.48854961832061067,1.8778625954198473,-0.328335832083958,-0.11544227886056971,0.2638680659670165,101.17036896870428,32.01845947115216,2024-09-20 14:54:13.341827328+02:00
1726836853361.3586,5.163043478260869,5.315217391304348,10.17391304347826,2.0,2.356776556776557,424.30836182778984,-7.083969465648854,0.3969465648854962,1.66412213740458,-0.3268365817091454,-0.13193403298350825,0.26686656671664166,101.17862177216088,32.01845947115216,2024-09-20 14:54:13.361358592+02:00
1726836853380.89,5.0978260869565215,5.33695652173913,10.108695652173912,2.0,2.3582417582417583,424.04473438956194,-7.8473282442748085,1.6335877862595418,1.8931297709923662,-0.3268365817091454,-0.1184407796101949,0.27136431784107945,101.17036896870428,32.01845947115216,2024-09-20 14:54:13.380889856+02:00
1726836853400.4211,5.054347826086956,5.3478260869565215,10.206521739130434,2.0,2.356776556776557,424.30836182778984,-7.312977099236641,0.9007633587786259,1.6335877862595418,-0.3328335832083958,-0.10944527736131934,0.25487256371814093,101.17036896870428,32.01845947115216,2024-09-20 14:54:13.400421120+02:00
1726836853419.9524,5.054347826086956,5.380434782608695,10.097826086956522,2.0,2.3582417582417583,424.04473438956194,-7.480916030534351,0.9465648854961831,1.816793893129771,-0.3268365817091454,-0.12143928035982009,0.272863568215892,101.18412365415057,32.01845947115216,2024-09-20 14:54:13.419952384+02:00
1726836853439.4836,5.065217391304348,5.271739130434782,10.141304347826086,2.0,2.3582417582417583,424.04473438956194,-7.251908396946565,0.6717557251908397,1.7099236641221374,-0.3268365817091454,-0.1184407796101949,0.2653673163418291,101.1731199005861,32.01845947115216,2024-09-20 14:54:13.439483648+02:00
1726836853459.015,5.163043478260869,5.3478260869565215,10.141304347826086,2.0,2.3582417582417583,424.04473438956194,-7.480916030534351,0.549618320610687,1.7404580152671756,-0.32533733133433285,-0.10644677661169415,0.26686656671664166,101.16761803942619,32.01845947115216,2024-09-20 14:54:13.459014912+02:00
1726836853478.546,5.0978260869565215,5.315217391304348,10.141304347826086,2.0,2.356776556776557,424.30836182778984,-7.526717557251908,1.1908396946564885,1.4961832061068703,-0.33433283358320837,-0.12893553223388304,0.2653673163418291,101.17036896870428,32.01845947115216,2024-09-20 14:54:13.478545920+02:00
1726836853498.0774,5.08695652173913,5.369565217391304,10.184782608695652,2.0,2.3582417582417583,424.04473438956194,-7.66412213740458,1.2061068702290076,1.7862595419847327,-0.3238380809595202,-0.13193403298350825,0.26686656671664166,101.1731199005861,32.01845947115216,2024-09-20 14:54:13.498077440+02:00
1726836853517.6086,5.054347826086956,5.326086956521739,10.152173913043478,2.0,2.3582417582417583,424.04473438956194,-7.572519083969465,1.083969465648855,1.66412213740458,-0.3328335832083958,-0.13343328335832083,0.26686656671664166,101.17036896870428,32.01845947115216,2024-09-20 14:54:13.517608704+02:00
1726836853537.14,5.0978260869565215,5.33695652173913,10.141304347826086,2.0,2.3582417582417583,424.04473438956194,-7.343511450381679,0.366412213740458,1.8625954198473282,-0.32533733133433285,-0.13043478260869565,0.26686656671664166,101.17036896870428,32.01845947115216,2024-09-20 14:54:13.537139968+02:00
1726836853556.6711,5.119565217391304,5.326086956521739,10.130434782608695,2.0,2.3582417582417583,424.04473438956194,-7.511450381679389,0.9618320610687022,1.7557251908396947,-0.3238380809595202,-0.11394302848575712,0.2623688155922039,101.17036896870428,32.01845947115216,2024-09-20 14:54:13.556671232+02:00
1726836853576.2024,5.119565217391304,5.304347826086956,10.195652173913043,2.0,2.3582417582417583,424.04473438956194,-7.480916030534351,0.7938931297709924,1.8015267175572518,-0.3328335832083958,-0.1199400299850075,0.2593703148425787,101.17036896870428,32.01845947115216,2024-09-20 14:54:13.576202496+02:00
1726836853595.7336,5.0978260869565215,5.358695652173913,10.141304347826086,2.0,2.3582417582417583,424.04473438956194,-7.740458015267175,1.0381679389312977,1.8778625954198473,-0.3313343328335832,-0.11544227886056971,0.2653673163418291,101.17587083507163,32.01845947115216,2024-09-20 14:54:13.595733760+02:00
1726836853615.265,5.076086956521739,5.3478260869565215,10.16304347826087,2.0,2.3582417582417583,424.04473438956194,-7.511450381679389,0.9465648854961831,1.83206106870229,-0.32533733133433285,-0.10194902548725637,0.2578710644677661,101.17862177216088,32.01845947115216,2024-09-20 14:54:13.615264768+02:00
1726836853634.796,5.08695652173913,5.33695652173913,10.152173913043478,2.0,2.3582417582417583,424.04473438956194,-7.435114503816793,0.22900763358778625,1.66412213740458,-0.3238380809595202,-0.12593703148425786,0.26686656671664166,101.17036896870428,32.01845947115216,2024-09-20 14:54:13.634796032+02:00
1726836853654.3274,5.08695652173913,5.33695652173913,10.152173913043478,2.0,2.3582417582417583,424.04473438956194,-7.480916030534351,1.083969465648855,1.297709923664122,-0.3313343328335832,-0.12443778110944527,0.2653673163418291,101.17036896870428,32.01845947115216,2024-09-20 14:54:13.654327296+02:00
1726836853673.8586,5.119565217391304,5.33695652173913,10.16304347826087,2.0,2.356776556776557,424.30836182778984,-7.236641221374046,0.8549618320610687,1.4961832061068703,-0.33883058470764615,-0.12743628185907047,0.2638680659670165,101.18137271185387,32.01845947115216,2024-09-20 14:54:13.673858560+02:00
1726836853693.39,5.0978260869565215,5.33695652173913,10.152173913043478,2.0,2.3582417582417583,424.04473438956194,-7.526717557251908,1.083969465648855,1.5572519083969465,-0.3313343328335832,-0.13193403298350825,0.27136431784107945,101.1731199005861,32.01845947115216,2024-09-20 14:54:13.693389824+02:00
1726836853712.9211,5.076086956521739,5.3478260869565215,10.16304347826087,2.0,2.356776556776557,424.30836182778984,-7.374045801526718,0.9465648854961831,1.5877862595419847,-0.3313343328335832,-0.12593703148425786,0.2623688155922039,101.1731199005861,32.01845947115216,2024-09-20 14:54:13.712921088+02:00
1726836853732.4524,5.108695652173913,5.369565217391304,10.141304347826086,2.0,2.3582417582417583,424.04473438956194,-7.374045801526718,0.7480916030534351,1.8473282442748091,-0.3298350824587706,-0.12443778110944527,0.2608695652173913,101.17036896870428,32.01845947115216,2024-09-20 14:54:13.732452352+02:00
1726836853751.9836,5.032608695652174,5.315217391304348,10.152173913043478,2.0,2.356776556776557,424.30836182778984,-7.98473282442748,1.2671755725190839,2.0,-0.3298350824587706,-0.1169415292353823,0.272863568215892,101.17587083507163,32.01845947115216,2024-09-20 14:54:13.751983616+02:00
1726836853771.515,5.119565217391304,5.391304347826087,10.16304347826087,2.0,2.356776556776557,424.30836182778984,-7.129770992366412,0.6106870229007634,2.0,-0.3298350824587706,-0.1184407796101949,0.2638680659670165,101.17587083507163,32.01845947115216,2024-09-20 14:54:13.771514880+02:00
1726836853791.046,5.119565217391304,5.3478260869565215,10.16304347826087,2.0,2.356776556776557,424.30836182778984,-7.587786259541985,0.9007633587786259,1.9236641221374045,-0.32533733133433285,-0.1169415292353823,0.26686656671664166,101.17036896870428,32.01845947115216,2024-09-20 14:54:13.791045888+02:00
1726836853810.5774,5.08695652173913,5.33695652173913,10.130434782608695,2.0,2.356776556776557,424.30836182778984,-7.221374045801526,0.9770992366412213,1.450381679389313,-0.3313343328335832,-0.1184407796101949,0.2578710644677661,101.16761803942619,32.01845947115216,2024-09-20 14:54:13.810577408+02:00
1726836853830.1086,5.108695652173913,5.315217391304348,10.195652173913043,2.0,2.355311355311355,424.5723172628305,-7.221374045801526,0.8549618320610687,1.5267175572519083,-0.328335832083958,-0.13043478260869565,0.27136431784107945,101.17587083507163,32.01845947115216,2024-09-20 14:54:13.830108672+02:00
1726836853849.64,5.054347826086956,5.315217391304348,10.130434782608695,2.0,2.355311355311355,424.5723172628305,-7.587786259541985,1.099236641221374,1.9083969465648853,-0.32533733133433285,-0.12593703148425786,0.2638680659670165,101.17036896870428,32.01845947115216,2024-09-20 14:54:13.849639936+02:00
1726836853869.1711,5.0978260869565215,5.315217391304348,10.16304347826087,2.0,2.355311355311355,424.5723172628305,-7.312977099236641,0.7175572519083969,1.7862595419847327,-0.328335832083958,-0.12593703148425786,0.27136431784107945,101.1731199005861,32.01845947115216,2024-09-20 14:54:13.869171200+02:00
1726836853888.7024,5.130434782608695,5.33695652173913,10.119565217391305,2.0,2.355311355311355,424.5723172628305,-7.404580152671755,0.8244274809160305,1.4961832061068703,-0.3238380809595202,-0.1199400299850075,0.2563718140929535,101.17587083507163,32.01845947115216,2024-09-20 14:54:13.888702464+02:00
1726836853908.2336,5.065217391304348,5.358695652173913,10.141304347826086,2.0,2.355311355311355,424.5723172628305,-7.419847328244274,1.1450381679389312,1.816793893129771,-0.328335832083958,-0.12293853073463268,0.2563718140929535,101.1731199005861,32.01845947115216,2024-09-20 14:54:13.908233728+02:00
1726836853927.765,5.08695652173913,5.3478260869565215,10.16304347826087,2.0,2.353846153846154,424.83660130718954,-7.480916030534351,1.2061068702290076,1.7099236641221374,-0.328335832083958,-0.12143928035982009,0.26686656671664166,101.17036896870428,32.01845947115216,2024-09-20 14:54:13.927764992+02:00
1726836853947.296,5.054347826086956,5.369565217391304,10.097826086956522,2.0,2.355311355311355,424.5723172628305,-7.404580152671755,0.8244274809160305,1.83206106870229,-0.33883058470764615,-0.1169415292353823,0.2638680659670165,101.16761803942619,32.01845947115216,2024-09-20 14:54:13.947296+02:00
1726836853966.8274,5.065217391304348,5.3478260869565215,10.141304347826086,2.0,2.353846153846154,424.83660130718954,-7.572519083969465,0.7633587786259541,1.7709923664122136,-0.335832083958021,-0.1199400299850075,0.2563718140929535,101.16761803942619,32.01845947115216,2024-09-20 14:54:13.966827520+02:00
1726836853986.3586,5.0978260869565215,5.3478260869565215,10.130434782608695,2.0,2.353846153846154,424.83660130718954,-7.3893129770992365,0.48854961832061067,1.816793893129771,-0.32233883058470764,-0.1199400299850075,0.2623688155922039,101.1693224375433,32.02857134342194,2024-09-20 14:54:13.986358528+02:00
1726836854005.89,5.065217391304348,5.33695652173913,10.141304347826086,2.0,2.353846153846154,424.83660130718954,-7.694656488549618,1.0381679389312977,1.5267175572519083,-0.3313343328335832,-0.12593703148425786,0.2638680659670165,101.174824388018,32.02857134342194,2024-09-20 14:54:14.005889792+02:00
1726836854025.4211,5.076086956521739,5.358695652173913,10.152173913043478,2.0,2.353846153846154,424.83660130718954,-7.145038167938931,0.9770992366412213,1.83206106870229,-0.3313343328335832,-0.13043478260869565,0.2638680659670165,101.1693224375433,32.02857134342194,2024-09-20 14:54:14.025421056+02:00
1726836854044.9524,5.0978260869565215,5.358695652173913,10.152173913043478,2.0,2.353846153846154,424.83660130718954,-7.435114503816793,0.732824427480916,1.6030534351145038,-0.34332833583208394,-0.13193403298350825,0.2623688155922039,101.1693224375433,32.02857134342194,2024-09-20 14:54:14.044952320+02:00
1726836854064.4836,5.08695652173913,5.33695652173913,10.141304347826086,2.0,2.353846153846154,424.83660130718954,-7.404580152671755,0.549618320610687,1.3129770992366412,-0.33433283358320837,-0.13343328335832083,0.2653673163418291,101.17757536716103,32.02857134342194,2024-09-20 14:54:14.064483584+02:00
1726836854084.015,5.0978260869565215,5.326086956521739,10.17391304347826,2.0,2.352380952380952,425.1012145748988,-7.6183206106870225,1.0229007633587786,1.7709923664122136,-0.3313343328335832,-0.12893553223388304,0.2593703148425787,101.174824388018,32.02857134342194,2024-09-20 14:54:14.084014848+02:00
1726836854103.546,5.119565217391304,5.358695652173913,10.16304347826087,2.0,2.352380952380952,425.1012145748988,-7.221374045801526,0.8244274809160305,1.7862595419847327,-0.32533733133433285,-0.10944527736131934,0.2623688155922039,101.174824388018,32.02857134342194,2024-09-20 14:54:14.103545856+02:00
1726836854123.0774,5.08695652173913,5.315217391304348,10.152173913043478,2.0,2.352380952380952,425.1012145748988,-7.49618320610687,1.0229007633587786,1.129770992366412,-0.33883058470764615,-0.1184407796101949,0.26836581709145424,101.174824388018,32.02857134342194,2024-09-20 14:54:14.123077376+02:00
1726836854142.6086,5.076086956521739,5.315217391304348,10.130434782608695,2.0,2.352380952380952,425.1012145748988,-7.343511450381679,0.6106870229007634,1.6946564885496183,-0.3328335832083958,-0.1184407796101949,0.2593703148425787,101.17207341147875,32.02857134342194,2024-09-20 14:54:14.142608640+02:00
1726836854162.14,5.108695652173913,5.326086956521739,10.184782608695652,2.0,2.352380952380952,425.1012145748988,-7.32824427480916,0.4427480916030534,1.9541984732824427,-0.3328335832083958,-0.12293853073463268,0.26686656671664166,101.174824388018,32.02857134342194,2024-09-20 14:54:14.162139904+02:00
1726836854181.6711,5.08695652173913,5.326086956521739,10.152173913043478,2.0,2.350915750915751,425.3661576815207,-7.419847328244274,0.4427480916030534,1.7862595419847327,-0.328335832083958,-0.12593703148425786,0.2608695652173913,101.17757536716103,32.02857134342194,2024-09-20 14:54:14.181671168+02:00
1726836854201.2024,5.08695652173913,5.33695652173913,10.141304347826086,2.0,2.350915750915751,425.3661576815207,-7.404580152671755,1.2061068702290076,1.9083969465648853,-0.3268365817091454,-0.12293853073463268,0.2638680659670165,101.17757536716103,32.02857134342194,2024-09-20 14:54:14.201202432+02:00
1726836854220.7336,5.0978260869565215,5.3478260869565215,10.152173913043478,2.0,2.350915750915751,425.3661576815207,-7.480916030534351,0.5954198473282443,1.4198473282442747,-0.3313343328335832,-0.13043478260869565,0.2623688155922039,101.174824388018,32.02857134342194,2024-09-20 14:54:14.220733696+02:00
1726836854240.265,5.043478260869565,5.33695652173913,10.184782608695652,2.0,2.350915750915751,425.3661576815207,-7.603053435114504,0.9618320610687022,1.6946564885496183,-0.328335832083958,-0.12293853073463268,0.2653673163418291,101.18032634890787,32.02857134342194,2024-09-20 14:54:14.240264960+02:00
1726836854259.796,5.0978260869565215,5.3478260869565215,10.152173913043478,2.0,2.350915750915751,425.3661576815207,-7.312977099236641,0.7022900763358778,1.4961832061068703,-0.335832083958021,-0.12593703148425786,0.26836581709145424,101.17207341147875,32.02857134342194,2024-09-20 14:54:14.259795968+02:00
1726836854279.3274,5.076086956521739,5.315217391304348,10.130434782608695,2.0,2.350915750915751,425.3661576815207,-7.557251908396946,0.6717557251908397,1.6030534351145038,-0.3268365817091454,-0.1199400299850075,0.26836581709145424,101.1693224375433,32.02857134342194,2024-09-20 14:54:14.279327488+02:00
1726836854298.8586,5.0978260869565215,5.33695652173913,10.141304347826086,2.0,2.3494505494505495,425.6314312441534,-7.480916030534351,0.732824427480916,1.83206106870229,-0.3298350824587706,-0.12593703148425786,0.2593703148425787,101.174824388018,32.02857134342194,2024-09-20 14:54:14.298858752+02:00
1726836854318.39,5.08695652173913,5.358695652173913,10.16304347826087,2.0,2.3494505494505495,425.6314312441534,-7.419847328244274,0.564885496183206,1.7862595419847327,-0.3373313343328336,-0.1169415292353823,0.2698650674662669,101.174824388018,32.02857134342194,2024-09-20 14:54:14.318390016+02:00
1726836854337.9211,5.065217391304348,5.358695652173913,10.141304347826086,2.0,2.3494505494505495,425.6314312441534,-7.175572519083969,0.6564885496183206,1.7862595419847327,-0.3298350824587706,-0.11094452773613193,0.2608695652173913,101.1693224375433,32.02857134342194,2024-09-20 14:54:14.337921024+02:00
1726836854357.4524,5.0978260869565215,5.33695652173913,10.152173913043478,2.0,2.3494505494505495,425.6314312441534,-7.6183206106870225,0.7480916030534351,1.984732824427481,-0.3313343328335832,-0.12743628185907047,0.2653673163418291,101.174824388018,32.02857134342194,2024-09-20 14:54:14.357452288+02:00
1726836854376.9836,5.0978260869565215,5.326086956521739,10.16304347826087,2.0,2.3479853479853485,425.8970358814352,-7.526717557251908,0.7480916030534351,1.984732824427481,-0.3313343328335832,-0.13493253373313344,0.2593703148425787,101.17207341147875,32.02857134342194,2024-09-20 14:54:14.376983552+02:00
1726836854396.515,5.108695652173913,5.358695652173913,10.152173913043478,2.0,2.3479853479853485,425.8970358814352,-7.358778625954198,0.7938931297709924,1.9083969465648853,-0.3313343328335832,-0.13343328335832083,0.2623688155922039,101.17757536716103,32.02857134342194,2024-09-20 14:54:14.396514816+02:00
1726836854416.046,5.108695652173913,5.326086956521739,10.17391304347826,2.0,2.3479853479853485,425.8970358814352,-7.2824427480916025,0.7633587786259541,1.648854961832061,-0.32083958020989506,-0.13193403298350825,0.2653673163418291,101.174824388018,32.02857134342194,2024-09-20 14:54:14.416045824+02:00
1726836854435.5774,5.076086956521739,5.33695652173913,10.17391304347826,2.0,2.3479853479853485,425.8970358814352,-7.450381679389313,0.9465648854961831,1.7404580152671756,-0.3298350824587706,-0.1169415292353823,0.26836581709145424,101.18032634890787,32.02857134342194,2024-09-20 14:54:14.435577344+02:00
1726836854455.1086,5.065217391304348,5.358695652173913,10.17391304347826,2.0,2.3479853479853485,425.8970358814352,-7.679389312977099,1.0534351145038168,1.8931297709923662,-0.3328335832083958,-0.12443778110944527,0.2623688155922039,101.17757536716103,32.02857134342194,2024-09-20 14:54:14.455108608+02:00
1726836854474.64,5.076086956521739,5.3478260869565215,10.16304347826087,2.0,2.3479853479853485,425.8970358814352,-7.435114503816793,1.0229007633587786,1.7251908396946565,-0.3313343328335832,-0.12443778110944527,0.26686656671664166,101.17207341147875,32.02857134342194,2024-09-20 14:54:14.474639872+02:00
1726836854494.1711,5.108695652173913,5.358695652173913,10.16304347826087,2.0,2.3465201465201466,426.1629722135498,-7.557251908396946,0.47328244274809156,1.7099236641221374,-0.328335832083958,-0.12593703148425786,0.2593703148425787,101.174824388018,32.02857134342194,2024-09-20 14:54:14.494171136+02:00
1726836854513.7024,5.0978260869565215,5.33695652173913,10.130434782608695,2.0,2.3465201465201466,426.1629722135498,-7.374045801526718,1.099236641221374,1.4351145038167938,-0.3298350824587706,-0.1199400299850075,0.2623688155922039,101.17207341147875,32.02857134342194,2024-09-20 14:54:14.513702400+02:00
1726836854533.2336,5.0978260869565215,5.33695652173913,10.152173913043478,2.0,2.3450549450549456,426.42924086223053,-7.404580152671755,0.7175572519083969,1.5877862595419847,-0.32533733133433285,-0.1199400299850075,0.26686656671664166,101.17207341147875,32.02857134342194,2024-09-20 14:54:14.533233664+02:00
1726836854552.765,5.108695652173913,5.3478260869565215,10.130434782608695,2.0,2.3465201465201466,426.1629722135498,-7.66412213740458,0.8549618320610687,1.9389312977099236,-0.3268365817091454,-0.13493253373313344,0.2608695652173913,101.17207341147875,32.02857134342194,2024-09-20 14:54:14.552764928+02:00
1726836854572.296,5.076086956521739,5.358695652173913,10.119565217391305,2.0,2.3450549450549456,426.42924086223053,-7.877862595419847,0.42748091603053434,1.7099236641221374,-0.3298350824587706,-0.1184407796101949,0.2638680659670165,101.174824388018,32.02857134342194,2024-09-20 14:54:14.572295936+02:00
1726836854591.8274,5.0978260869565215,5.358695652173913,10.152173913043478,2.0,2.3465201465201466,426.1629722135498,-7.9541984732824424,0.15267175572519084,1.4809160305343512,-0.3313343328335832,-0.13493253373313344,0.2593703148425787,101.174824388018,32.02857134342194,2024-09-20 14:54:14.591827456+02:00
1726836854611.3586,5.108695652173913,5.326086956521739,10.152173913043478,2.0,2.3450549450549456,426.42924086223053,-7.801526717557252,0.9007633587786259,1.5725190839694656,-0.335832083958021,-0.12293853073463268,0.26836581709145424,101.174824388018,32.02857134342194,2024-09-20 14:54:14.611358720+02:00
1726836854630.89,5.065217391304348,5.33695652173913,10.152173913043478,2.0,2.3450549450549456,426.42924086223053,-7.8473282442748085,0.549618320610687,1.6335877862595418,-0.3268365817091454,-0.1199400299850075,0.2608695652173913,101.17207341147875,32.02857134342194,2024-09-20 14:54:14.630889984+02:00
1726836854650.4211,5.076086956521739,5.358695652173913,10.16304347826087,2.0,2.3450549450549456,426.42924086223053,-7.572519083969465,0.9618320610687022,1.66412213740458,-0.3238380809595202,-0.11544227886056971,0.2653673163418291,101.1693224375433,32.02857134342194,2024-09-20 14:54:14.650421248+02:00
1726836854669.9524,5.0978260869565215,5.33695652173913,10.152173913043478,2.0,2.3450549450549456,426.42924086223053,-7.145038167938931,0.366412213740458,1.7404580152671756,-0.33433283358320837,-0.1169415292353823,0.27136431784107945,101.17757536716103,32.02857134342194,2024-09-20 14:54:14.669952512+02:00
1726836854689.4836,5.0978260869565215,5.326086956521739,10.130434782608695,2.0,2.3450549450549456,426.42924086223053,-7.450381679389313,0.9007633587786259,1.5267175572519083,-0.3313343328335832,-0.11394302848575712,0.26836581709145424,101.18032634890787,32.02857134342194,2024-09-20 14:54:14.689483520+02:00
1726836854709.015,5.08695652173913,5.326086956521739,10.141304347826086,2.0,2.3450549450549456,426.42924086223053,-7.343511450381679,0.8396946564885496,1.8015267175572518,-0.32533733133433285,-0.12143928035982009,0.2608695652173913,101.174824388018,32.02857134342194,2024-09-20 14:54:14.709014784+02:00
1726836854728.546,5.0978260869565215,5.33695652173913,10.152173913043478,2.0,2.3450549450549456,426.42924086223053,-6.854961832061068,0.24427480916030533,1.3740458015267174,-0.3328335832083958,-0.12893553223388304,0.26686656671664166,101.17757536716103,32.02857134342194,2024-09-20 14:54:14.728545792+02:00
1726836854748.0774,5.119565217391304,5.33695652173913,10.141304347826086,2.0,2.3450549450549456,426.42924086223053,-6.931297709923664,0.7480916030534351,1.4351145038167938,-0.328335832083958,-0.10644677661169415,0.2653673163418291,101.17207341147875,32.02857134342194,2024-09-20 14:54:14.748077312+02:00
1726836854767.6086,5.119565217391304,5.33695652173913,10.16304347826087,2.0,2.3450549450549456,426.42924086223053,-7.022900763358779,1.1908396946564885,1.7099236641221374,-0.3298350824587706,-0.13493253373313344,0.2698650674662669,101.174824388018,32.02857134342194,2024-09-20 14:54:14.767608576+02:00
1726836854787.14,5.08695652173913,5.33695652173913,10.130434782608695,2.0,2.3450549450549456,426.42924086223053,-7.297709923664121,0.6259541984732824,1.7862595419847327,-0.3298350824587706,-0.11244377811094453,0.2653673163418291,101.17207341147875,32.02857134342194,2024-09-20 14:54:14.787139840+02:00
1726836854806.6711,5.065217391304348,5.33695652173913,10.152173913043478,2.0,2.3450549450549456,426.42924086223053,-7.541984732824427,0.6870229007633587,1.7251908396946565,-0.3373313343328336,-0.11394302848575712,0.2653673163418291,101.174824388018,32.02857134342194,2024-09-20 14:54:14.806671104+02:00
1726836854826.2024,5.08695652173913,5.3478260869565215,10.141304347826086,2.0,2.3450549450549456,426.42924086223053,-7.251908396946565,0.6564885496183206,1.7251908396946565,-0.33433283358320837,-0.1184407796101949,0.26686656671664166,101.174824388018,32.02857134342194,2024-09-20 14:54:14.826202368+02:00
1726836854845.7336,5.0978260869565215,5.326086956521739,10.141304347826086,2.0,2.3450549450549456,426.42924086223053,-7.32824427480916,0.7480916030534351,1.6030534351145038,-0.3313343328335832,-0.1199400299850075,0.272863568215892,101.1693224375433,32.02857134342194,2024-09-20 14:54:14.845733632+02:00
1726836854865.265,5.108695652173913,5.358695652173913,10.130434782608695,2.0,2.3450549450549456,426.42924086223053,-7.267175572519084,0.564885496183206,1.7251908396946565,-0.3313343328335832,-0.1184407796101949,0.26686656671664166,101.17757536716103,32.02857134342194,2024-09-20 14:54:14.865264896+02:00
1726836854884.796,5.108695652173913,5.3478260869565215,10.130434782608695,2.0,2.3435897435897437,426.69584245076584,-7.572519083969465,0.5801526717557252,1.7251908396946565,-0.328335832083958,-0.1184407796101949,0.2608695652173913,101.1693224375433,32.02857134342194,2024-09-20 14:54:14.884795904+02:00
1726836854904.3274,5.08695652173913,5.326086956521739,10.141304347826086,2.0,2.3435897435897437,426.69584245076584,-7.450381679389313,1.0076335877862594,1.9389312977099236,-0.3328335832083958,-0.13193403298350825,0.2608695652173913,101.174824388018,32.02857134342194,2024-09-20 14:54:14.904327424+02:00
1726836854923.8586,5.108695652173913,5.33695652173913,10.152173913043478,2.0,2.3435897435897437,426.69584245076584,-7.557251908396946,0.47328244274809156,2.091603053435114,-0.3328335832083958,-0.13043478260869565,0.2773613193403298,101.18032634890787,32.02857134342194,2024-09-20 14:54:14.923858688+02:00
1726836854943.39,5.08695652173913,5.315217391304348,10.130434782608695,2.0,2.3435897435897437,426.69584245076584,-7.480916030534351,0.564885496183206,1.816793893129771,-0.32533733133433285,-0.13193403298350825,0.26686656671664166,101.17207341147875,32.02857134342194,2024-09-20 14:54:14.943389952+02:00
1726836854962.9211,5.08695652173913,5.33695652173913,10.16304347826087,2.0,2.3450549450549456,426.42924086223053,-7.190839694656488,0.2748091603053435,1.618320610687023,-0.3268365817091454,-0.1169415292353823,0.2638680659670165,101.17207341147875,32.02857134342194,2024-09-20 14:54:14.962921216+02:00
1726836854982.4524,5.0978260869565215,5.326086956521739,10.130434782608695,2.0,2.3450549450549456,426.42924086223053,-7.374045801526718,0.8396946564885496,1.4961832061068703,-0.32083958020989506,-0.11244377811094453,0.26836581709145424,101.17207341147875,32.02857134342194,2024-09-20 14:54:14.982452480+02:00
1726836855001.9836,5.076086956521739,5.3478260869565215,10.152173913043478,2.0,2.3450549450549456,426.42924086223053,-7.374045801526718,0.5038167938931297,1.6946564885496183,-0.335832083958021,-0.11244377811094453,0.27136431784107945,101.17207341147875,32.02857134342194,2024-09-20 14:54:15.001983744+02:00
1726836855021.515,5.119565217391304,5.326086956521739,10.119565217391305,2.0,2.3450549450549456,426.42924086223053,-7.603053435114504,0.12213740458015267,1.5419847328244274,-0.33433283358320837,-0.11394302848575712,0.2653673163418291,101.1693224375433,32.02857134342194,2024-09-20 14:54:15.021515008+02:00
1726836855041.046,5.130434782608695,5.326086956521739,10.16304347826087,2.0,2.3450549450549456,426.42924086223053,-7.633587786259541,0.48854961832061067,1.9236641221374045,-0.328335832083958,-0.12293853073463268,0.272863568215892,101.17757536716103,32.02857134342194,2024-09-20 14:54:15.041046016+02:00
1726836855060.5774,5.141304347826087,5.326086956521739,10.16304347826087,2.0,2.3450549450549456,426.42924086223053,-7.297709923664121,0.3511450381679389,1.83206106870229,-0.3313343328335832,-0.12443778110944527,0.2608695652173913,101.174824388018,32.02857134342194,2024-09-20 14:54:15.060577280+02:00
1726836855080.1086,5.130434782608695,5.33695652173913,10.152173913043478,2.0,2.3450549450549456,426.42924086223053,-7.267175572519084,0.21374045801526717,1.816793893129771,-0.335832083958021,-0.13043478260869565,0.27436281859070466,101.18032634890787,32.02857134342194,2024-09-20 14:54:15.080108544+02:00
1726836855099.64,5.065217391304348,5.33695652173913,10.152173913043478,2.0,2.3450549450549456,426.42924086223053,-7.633587786259541,0.9007633587786259,1.7862595419847327,-0.32533733133433285,-0.1199400299850075,0.2638680659670165,101.174824388018,32.02857134342194,2024-09-20 14:54:15.099639808+02:00
1726836855119.1711,5.08695652173913,5.369565217391304,10.217391304347826,2.0,2.3450549450549456,426.42924086223053,-7.587786259541985,0.5038167938931297,1.5419847328244274,-0.3313343328335832,-0.12893553223388304,0.272863568215892,101.18032634890787,32.02857134342194,2024-09-20 14:54:15.119171072+02:00
1726836855138.7024,5.130434782608695,5.358695652173913,10.119565217391305,2.0,2.3450549450549456,426.42924086223053,-7.221374045801526,0.42748091603053434,1.8931297709923662,-0.335832083958021,-0.12593703148425786,0.26836581709145424,101.174824388018,32.02857134342194,2024-09-20 14:54:15.138702336+02:00
1726836855158.2336,5.130434782608695,5.304347826086956,10.119565217391305,2.0,2.3450549450549456,426.42924086223053,-7.297709923664121,0.5190839694656488,1.5114503816793892,-0.3313343328335832,-0.1184407796101949,0.27136431784107945,101.174824388018,32.02857134342194,2024-09-20 14:54:15.158233600+02:00
1726836855177.765,5.173913043478261,5.358695652173913,10.152173913043478,2.0,2.3465201465201466,426.1629722135498,-7.435114503816793,0.6412213740458015,1.450381679389313,-0.3313343328335832,-0.12143928035982009,0.26836581709145424,101.174824388018,32.02857134342194,2024-09-20 14:54:15.177764864+02:00
1726836855197.296,5.065217391304348,5.33695652173913,10.16304347826087,2.0,2.3450549450549456,426.42924086223053,-7.8473282442748085,1.083969465648855,1.5267175572519083,-0.3298350824587706,-0.10944527736131934,0.26836581709145424,101.18307733325851,32.02857134342194,2024-09-20 14:54:15.197295872+02:00
1726836855216.8274,5.08695652173913,5.3478260869565215,10.17391304347826,2.0,2.3465201465201466,426.1629722135498,-7.312977099236641,0.732824427480916,1.8625954198473282,-0.33433283358320837,-0.1184407796101949,0.2638680659670165,101.17207341147875,32.02857134342194,2024-09-20 14:54:15.216827392+02:00
1726836855236.3586,5.108695652173913,5.326086956521739,10.16304347826087,2.0,2.3450549450549456,426.42924086223053,-7.3893129770992365,0.7786259541984732,1.9541984732824427,-0.3298350824587706,-0.12443778110944527,0.27436281859070466,101.18032634890787,32.02857134342194,2024-09-20 14:54:15.236358656+02:00
1726836855255.89,5.119565217391304,5.3478260869565215,10.108695652173912,2.0,2.3465201465201466,426.1629722135498,-7.312977099236641,0.6870229007633587,1.5572519083969465,-0.3268365817091454,-0.13343328335832083,0.26836581709145424,101.174824388018,32.02857134342194,2024-09-20 14:54:15.255889920+02:00
1726836855275.4211,5.1521739130434785,5.358695652173913,10.17391304347826,2.0,2.3450549450549456,426.42924086223053,-7.435114503816793,0.9465648854961831,1.6335877862595418,-0.3328335832083958,-0.10794602698650674,0.272863568215892,101.174824388018,32.02857134342194,2024-09-20 14:54:15.275421184+02:00
1726836855294.9524,5.076086956521739,5.369565217391304,10.152173913043478,2.0,2.3465201465201466,426.1629722135498,-7.49618320610687,0.9465648854961831,1.5877862595419847,-0.3298350824587706,-0.1199400299850075,0.27136431784107945,101.17757536716103,32.02857134342194,2024-09-20 14:54:15.294952448+02:00
1726836855314.4836,5.054347826086956,5.33695652173913,10.130434782608695,2.0,2.3465201465201466,426.1629722135498,-7.465648854961832,1.0076335877862594,1.816793893129771,-0.3268365817091454,-0.1199400299850075,0.2623688155922039,101.174824388018,32.02857134342194,2024-09-20 14:54:15.314483712+02:00
1726836855334.015,5.0978260869565215,5.3478260869565215,10.152173913043478,2.0,2.3465201465201466,426.1629722135498,-7.526717557251908,0.549618320610687,1.8473282442748091,-0.3268365817091454,-0.1199400299850075,0.26686656671664166,101.17207341147875,32.02857134342194,2024-09-20 14:54:15.334014976+02:00
1726836855353.546,5.119565217391304,5.3478260869565215,10.130434782608695,2.0,2.3465201465201466,426.1629722135498,-7.221374045801526,0.6717557251908397,1.9541984732824427,-0.328335832083958,-0.12143928035982009,0.2623688155922039,101.17757536716103,32.02857134342194,2024-09-20 14:54:15.353545984+02:00
1726836855373.0774,5.141304347826087,5.33695652173913,10.152173913043478,2.0,2.3465201465201466,426.1629722135498,-7.3893129770992365,1.1450381679389312,1.7557251908396947,-0.328335832083958,-0.1184407796101949,0.27136431784107945,101.17757536716103,32.02857134342194,2024-09-20 14:54:15.373077504+02:00
1726836855392.6086,5.119565217391304,5.358695652173913,10.16304347826087,2.0,2.3465201465201466,426.1629722135498,-7.66412213740458,1.4045801526717556,1.7862595419847327,-0.3328335832083958,-0.1184407796101949,0.2578710644677661,101.174824388018,32.02857134342194,2024-09-20 14:54:15.392608768+02:00
1726836855412.14,5.0978260869565215,5.358695652173913,10.119565217391305,2.0,2.3465201465201466,426.1629722135498,-7.32824427480916,1.2061068702290076,1.83206106870229,-0.33883058470764615,-0.12293853073463268,0.26686656671664166,101.174824388018,32.02857134342194,2024-09-20 14:54:15.412139776+02:00
1726836855431.6711,5.0978260869565215,5.33695652173913,10.141304347826086,2.0,2.3465201465201466,426.1629722135498,-7.374045801526718,1.0229007633587786,1.7862595419847327,-0.3238380809595202,-0.13193403298350825,0.2653673163418291,101.17207341147875,32.02857134342194,2024-09-20 14:54:15.431671040+02:00
1726836855451.2024,5.119565217391304,5.326086956521739,10.141304347826086,2.0,2.3465201465201466,426.1629722135498,-7.511450381679389,0.6564885496183206,1.8473282442748091,-0.328335832083958,-0.12743628185907047,0.272863568215892,101.174824388018,32.02857134342194,2024-09-20 14:54:15.451202304+02:00
1726836855470.7336,5.141304347826087,5.33695652173913,10.130434782608695,2.0,2.3479853479853485,425.8970358814352,-7.32824427480916,0.8396946564885496,1.7404580152671756,-0.3298350824587706,-0.13343328335832083,0.26686656671664166,101.17207341147875,32.02857134342194,2024-09-20 14:54:15.470733568+02:00
1726836855490.265,5.119565217391304,5.3478260869565215,10.17391304347826,2.0,2.3479853479853485,425.8970358814352,-7.541984732824427,1.2671755725190839,1.6030534351145038,-0.3298350824587706,-0.12743628185907047,0.26686656671664166,101.17207341147875,32.02857134342194,2024-09-20 14:54:15.490264832+02:00
1726836855509.796,5.08695652173913,5.358695652173913,10.16304347826087,2.0,2.3479853479853485,425.8970358814352,-7.694656488549618,0.916030534351145,1.8015267175572518,-0.335832083958021,-0.12593703148425786,0.272863568215892,101.17207341147875,32.02857134342194,2024-09-20 14:54:15.509795840+02:00
1726836855529.3274,5.0978260869565215,5.358695652173913,10.130434782608695,2.0,2.3465201465201466,426.1629722135498,-7.206106870229007,0.9770992366412213,1.816793893129771,-0.3328335832083958,-0.1184407796101949,0.26836581709145424,101.18032634890787,32.02857134342194,2024-09-20 14:54:15.529327360+02:00
1726836855548.8586,5.119565217391304,5.326086956521739,10.16304347826087,2.0,2.3479853479853485,425.8970358814352,-7.236641221374046,1.3129770992366412,1.984732824427481,-0.335832083958021,-0.12293853073463268,0.26686656671664166,101.174824388018,32.02857134342194,2024-09-20 14:54:15.548858624+02:00
1726836855568.39,5.141304347826087,5.358695652173913,10.08695652173913,2.0,2.3479853479853485,425.8970358814352,-7.343511450381679,0.916030534351145,1.7557251908396947,-0.328335832083958,-0.10794602698650674,0.2698650674662669,101.1693224375433,32.02857134342194,2024-09-20 14:54:15.568389888+02:00
1726836855587.9211,5.0978260869565215,5.3478260869565215,10.130434782608695,2.0,2.3465201465201466,426.1629722135498,-7.435114503816793,1.0229007633587786,1.4351145038167938,-0.3328335832083958,-0.12143928035982009,0.26836581709145424,101.1693224375433,32.02857134342194,2024-09-20 14:54:15.587921152+02:00
1726836855607.4524,5.108695652173913,5.380434782608695,10.16304347826087,2.0,2.3465201465201466,426.1629722135498,-7.190839694656488,1.0076335877862594,1.7557251908396947,-0.328335832083958,-0.12143928035982009,0.26686656671664166,101.17207341147875,32.02857134342194,2024-09-20 14:54:15.607452416+02:00
1726836855626.9836,5.065217391304348,5.33695652173913,10.130434782608695,2.0,2.3479853479853485,425.8970358814352,-7.480916030534351,0.8091603053435115,1.984732824427481,-0.3328335832083958,-0.13043478260869565,0.2698650674662669,101.174824388018,32.02857134342194,2024-09-20 14:54:15.626983680+02:00
1726836855646.515,5.108695652173913,5.315217391304348,10.141304347826086,2.0,2.3479853479853485,425.8970358814352,-7.755725190839694,0.8244274809160305,1.83206106870229,-0.32533733133433285,-0.11544227886056971,0.2653673163418291,101.17757536716103,32.02857134342194,2024-09-20 14:54:15.646514944+02:00
1726836855666.046,5.130434782608695,5.326086956521739,10.141304347826086,2.0,2.3465201465201466,426.1629722135498,-7.404580152671755,0.3511450381679389,1.4351145038167938,-0.32233883058470764,-0.12743628185907047,0.272863568215892,101.174824388018,32.02857134342194,2024-09-20 14:54:15.666045952+02:00
1726836855685.5774,5.108695652173913,5.326086956521739,10.141304347826086,2.0,2.3479853479853485,425.8970358814352,-7.557251908396946,0.9465648854961831,1.7099236641221374,-0.32533733133433285,-0.12293853073463268,0.272863568215892,101.17207341147875,32.02857134342194,2024-09-20 14:54:15.685577472+02:00
1726836855705.1086,5.141304347826087,5.369565217391304,10.16304347826087,2.0,2.3479853479853485,425.8970358814352,-7.709923664122137,1.0687022900763359,1.7251908396946565,-0.3403298350824588,-0.1199400299850075,0.2623688155922039,101.1693224375433,32.02857134342194,2024-09-20 14:54:15.705108736+02:00
1726836855724.64,5.065217391304348,5.33695652173913,10.141304347826086,2.0,2.3479853479853485,425.8970358814352,-7.343511450381679,1.083969465648855,1.618320610687023,-0.328335832083958,-0.11244377811094453,0.2638680659670165,101.174824388018,32.02857134342194,2024-09-20 14:54:15.724640+02:00
1726836855744.1711,5.0978260869565215,5.358695652173913,10.184782608695652,2.0,2.3479853479853485,425.8970358814352,-7.221374045801526,0.916030534351145,1.7404580152671756,-0.3328335832083958,-0.12443778110944527,0.2698650674662669,101.1693224375433,32.02857134342194,2024-09-20 14:54:15.744171264+02:00
1726836855763.7024,5.130434782608695,5.358695652173913,10.130434782608695,2.0,2.3465201465201466,426.1629722135498,-7.419847328244274,1.129770992366412,1.648854961832061,-0.328335832083958,-0.09745127436281859,0.2698650674662669,101.17207341147875,32.02857134342194,2024-09-20 14:54:15.763702272+02:00
1726836855783.2336,5.119565217391304,5.33695652173913,10.195652173913043,2.0,2.3479853479853485,425.8970358814352,-7.648854961832061,1.282442748091603,1.6030534351145038,-0.335832083958021,-0.12743628185907047,0.2698650674662669,101.17207341147875,32.02857134342194,2024-09-20 14:54:15.783233536+02:00
1726836855802.765,5.108695652173913,5.380434782608695,10.119565217391305,2.0,2.3465201465201466,426.1629722135498,-7.7251908396946565,1.099236641221374,1.6030534351145038,-0.3268365817091454,-0.13343328335832083,0.272863568215892,101.1693224375433,32.02857134342194,2024-09-20 14:54:15.802764800+02:00
1726836855822.296,5.054347826086956,5.33695652173913,10.130434782608695,2.0,2.3465201465201466,426.1629722135498,-7.435114503816793,0.8244274809160305,2.0,-0.3238380809595202,-0.11244377811094453,0.2638680659670165,101.18032634890787,32.02857134342194,2024-09-20 14:54:15.822295808+02:00
1726836855841.8274,5.108695652173913,5.369565217391304,10.141304347826086,2.0,2.3465201465201466,426.1629722135498,-7.2824427480916025,0.21374045801526717,1.8015267175572518,-0.3313343328335832,-0.13193403298350825,0.26686656671664166,101.17207341147875,32.02857134342194,2024-09-20 14:54:15.841827328+02:00
1726836855861.3586,5.141304347826087,5.315217391304348,10.152173913043478,2.0,2.3465201465201466,426.1629722135498,-7.145038167938931,0.9770992366412213,1.4198473282442747,-0.3298350824587706,-0.1184407796101949,0.26686656671664166,101.1693224375433,32.02857134342194,2024-09-20 14:54:15.861358592+02:00
1726836855880.89,5.065217391304348,5.315217391304348,10.17391304347826,2.0,2.3465201465201466,426.1629722135498,-7.6183206106870225,1.5419847328244274,2.16793893129771,-0.3238380809595202,-0.11094452773613193,0.2638680659670165,101.1693224375433,32.02857134342194,2024-09-20 14:54:15.880889856+02:00
1726836855900.4211,5.065217391304348,5.358695652173913,10.17391304347826,2.0,2.3465201465201466,426.1629722135498,-7.343511450381679,1.1450381679389312,1.7099236641221374,-0.33883058470764615,-0.12593703148425786,0.2608695652173913,101.17207341147875,32.02857134342194,2024-09-20 14:54:15.900421120+02:00
1726836855919.9524,5.130434782608695,5.33695652173913,10.16304347826087,2.0,2.3465201465201466,426.1629722135498,-7.526717557251908,0.9618320610687022,1.450381679389313,-0.33433283358320837,-0.12443778110944527,0.2653673163418291,101.17207341147875,32.02857134342194,2024-09-20 14:54:15.919952384+02:00
1726836855939.4836,5.119565217391304,5.326086956521739,10.119565217391305,2.0,2.3465201465201466,426.1629722135498,-7.114503816793893,0.7480916030534351,1.7862595419847327,-0.33433283358320837,-0.10794602698650674,0.26836581709145424,101.17207341147875,32.02857134342194,2024-09-20 14:54:15.939483648+02:00
1726836855959.015,5.130434782608695,5.33695652173913,10.141304347826086,2.0,2.3465201465201466,426.1629722135498,-7.83206106870229,1.083969465648855,1.7099236641221374,-0.33883058470764615,-0.10344827586206896,0.2578710644677661,101.16657146621168,32.02857134342194,2024-09-20 14:54:15.959014912+02:00
1726836855978.546,5.0978260869565215,5.315217391304348,10.130434782608695,2.0,2.3465201465201466,426.1629722135498,-7.49618320610687,1.2671755725190839,1.9389312977099236,-0.3298350824587706,-0.12593703148425786,0.2563718140929535,101.16827583081414,32.03868321685586,2024-09-20 14:54:15.978545920+02:00
1726836855998.0774,5.130434782608695,5.326086956521739,10.16304347826087,2.0,2.3465201465201466,426.1629722135498,-7.221374045801526,0.7175572519083969,1.9389312977099236,-0.3313343328335832,-0.12593703148425786,0.26836581709145424,101.17102684680319,32.03868321685586,2024-09-20 14:54:15.998077440+02:00
1726836856017.6086,5.119565217391304,5.33695652173913,10.130434782608695,2.0,2.3465201465201466,426.1629722135498,-7.32824427480916,0.8854961832061068,2.1526717557251906,-0.33433283358320837,-0.12143928035982009,0.2653673163418291,101.17652888659296,32.03868321685586,2024-09-20 14:54:16.017608704+02:00
1726836856037.14,5.119565217391304,5.358695652173913,10.108695652173912,2.0,2.3465201465201466,426.1629722135498,-7.66412213740458,0.41221374045801523,2.229007633587786,-0.335832083958021,-0.12143928035982009,0.26686656671664166,101.17102684680319,32.03868321685586,2024-09-20 14:54:16.037139968+02:00
1726836856056.6711,5.108695652173913,5.3478260869565215,10.152173913043478,2.0,2.3465201465201466,426.1629722135498,-7.709923664122137,0.5343511450381679,1.6030534351145038,-0.335832083958021,-0.1199400299850075,0.272863568215892,101.17652888659296,32.03868321685586,2024-09-20 14:54:16.056671232+02:00
1726836856076.2024,5.076086956521739,5.380434782608695,10.141304347826086,2.0,2.3465201465201466,426.1629722135498,-7.526717557251908,0.564885496183206,2.015267175572519,-0.3268365817091454,-0.1199400299850075,0.2623688155922039,101.18203093679826,32.03868321685586,2024-09-20 14:54:16.076202496+02:00
1726836856095.7336,5.08695652173913,5.358695652173913,10.152173913043478,2.0,2.3465201465201466,426.1629722135498,-7.404580152671755,0.8549618320610687,1.7404580152671756,-0.328335832083958,-0.10044977511244378,0.2653673163418291,101.17927991039366,32.03868321685586,2024-09-20 14:54:16.095733760+02:00
1726836856115.265,5.141304347826087,5.315217391304348,10.141304347826086,2.0,2.3465201465201466,426.1629722135498,-7.404580152671755,1.0534351145038168,1.9083969465648853,-0.33433283358320837,-0.12293853073463268,0.2638680659670165,101.16827583081414,32.03868321685586,2024-09-20 14:54:16.115264768+02:00
1726836856134.796,5.141304347826087,5.33695652173913,10.16304347826087,2.0,2.3465201465201466,426.1629722135498,-7.3893129770992365,0.6564885496183206,1.4961832061068703,-0.3298350824587706,-0.12293853073463268,0.272863568215892,101.17652888659296,32.03868321685586,2024-09-20 14:54:16.134796032+02:00
1726836856154.3274,5.108695652173913,5.3478260869565215,10.16304347826087,2.0,2.3465201465201466,426.1629722135498,-7.404580152671755,0.9618320610687022,1.465648854961832,-0.33433283358320837,-0.1199400299850075,0.2623688155922039,101.17377786539613,32.03868321685586,2024-09-20 14:54:16.154327296+02:00
1726836856173.8586,5.065217391304348,5.3478260869565215,10.16304347826087,2.0,2.3465201465201466,426.1629722135498,-7.572519083969465,1.1755725190839694,1.5725190839694656,-0.3313343328335832,-0.13043478260869565,0.2638680659670165,101.17652888659296,32.03868321685586,2024-09-20 14:54:16.173858560+02:00
1726836856193.39,5.054347826086956,5.326086956521739,10.17391304347826,2.0,2.3450549450549456,426.42924086223053,-7.557251908396946,0.8091603053435115,1.8931297709923662,-0.3328335832083958,-0.12593703148425786,0.26836581709145424,101.17102684680319,32.03868321685586,2024-09-20 14:54:16.193389824+02:00
1726836856212.9211,5.0978260869565215,5.326086956521739,10.119565217391305,2.0,2.3465201465201466,426.1629722135498,-7.557251908396946,1.099236641221374,1.4961832061068703,-0.3298350824587706,-0.12143928035982009,0.2578710644677661,101.17652888659296,32.03868321685586,2024-09-20 14:54:16.212921088+02:00
1726836856232.4524,5.130434782608695,5.33695652173913,10.141304347826086,2.0,2.3465201465201466,426.1629722135498,-7.7251908396946565,0.9618320610687022,1.5572519083969465,-0.328335832083958,-0.11244377811094453,0.2638680659670165,101.17652888659296,32.03868321685586,2024-09-20 14:54:16.232452352+02:00
1726836856251.9836,5.119565217391304,5.358695652173913,10.152173913043478,2.0,2.3465201465201466,426.1629722135498,-7.3893129770992365,0.9465648854961831,1.66412213740458,-0.3298350824587706,-0.10794602698650674,0.2653673163418291,101.17927991039366,32.03868321685586,2024-09-20 14:54:16.251983616+02:00
1726836856271.515,5.076086956521739,5.358695652173913,10.141304347826086,2.0,2.3450549450549456,426.42924086223053,-7.480916030534351,1.3282442748091603,1.5572519083969465,-0.3328335832083958,-0.1184407796101949,0.2593703148425787,101.17102684680319,32.03868321685586,2024-09-20 14:54:16.271514880+02:00
1726836856291.046,5.065217391304348,5.3478260869565215,10.152173913043478,2.0,2.3450549450549456,426.42924086223053,-7.709923664122137,1.1603053435114503,1.984732824427481,-0.335832083958021,-0.12743628185907047,0.27436281859070466,101.17377786539613,32.03868321685586,2024-09-20 14:54:16.291045888+02:00
1726836856310.5774,5.08695652173913,5.3478260869565215,10.17391304347826,2.0,2.3450549450549456,426.42924086223053,-7.236641221374046,0.41221374045801523,1.648854961832061,-0.3328335832083958,-0.12443778110944527,0.2623688155922039,101.17652888659296,32.03868321685586,2024-09-20 14:54:16.310577408+02:00
1726836856330.1086,5.130434782608695,5.358695652173913,10.152173913043478,2.0,2.3450549450549456,426.42924086223053,-7.648854961832061,0.38167938931297707,1.66412213740458,-0.3238380809595202,-0.12743628185907047,0.2623688155922039,101.17652888659296,32.03868321685586,2024-09-20 14:54:16.330108672+02:00
1726836856349.64,5.130434782608695,5.315217391304348,10.16304347826087,2.0,2.3450549450549456,426.42924086223053,-7.221374045801526,1.2519083969465647,1.3435114503816794,-0.3328335832083958,-0.12443778110944527,0.2638680659670165,101.17377786539613,32.03868321685586,2024-09-20 14:54:16.349639936+02:00
1726836856369.1711,5.108695652173913,5.33695652173913,10.17391304347826,2.0,2.3450549450549456,426.42924086223053,-7.343511450381679,0.7938931297709924,1.3893129770992365,-0.3373313343328336,-0.1184407796101949,0.26686656671664166,101.17102684680319,32.03868321685586,2024-09-20 14:54:16.369171200+02:00
1726836856388.7024,5.076086956521739,5.33695652173913,10.17391304347826,2.0,2.3450549450549456,426.42924086223053,-7.358778625954198,0.549618320610687,1.5877862595419847,-0.3373313343328336,-0.1184407796101949,0.2638680659670165,101.17652888659296,32.03868321685586,2024-09-20 14:54:16.388702464+02:00
1726836856408.2336,5.054347826086956,5.33695652173913,10.130434782608695,2.0,2.3450549450549456,426.42924086223053,-7.221374045801526,0.6412213740458015,1.7404580152671756,-0.335832083958021,-0.1184407796101949,0.2593703148425787,101.18203093679826,32.03868321685586,2024-09-20 14:54:16.408233728+02:00
1726836856427.765,5.1521739130434785,5.293478260869565,10.141304347826086,2.0,2.3450549450549456,426.42924086223053,-7.190839694656488,0.5343511450381679,1.66412213740458,-0.3268365817091454,-0.10494752623688156,0.26836581709145424,101.17377786539613,32.03868321685586,2024-09-20 14:54:16.427764992+02:00
1726836856447.296,5.1521739130434785,5.293478260869565,10.119565217391305,2.0,2.3450549450549456,426.42924086223053,-7.343511450381679,0.8854961832061068,1.6335877862595418,-0.3313343328335832,-0.11244377811094453,0.27136431784107945,101.17377786539613,32.03868321685586,2024-09-20 14:54:16.447296+02:00
1726836856466.8274,5.076086956521739,5.315217391304348,10.17391304347826,2.0,2.3450549450549456,426.42924086223053,-7.435114503816793,1.297709923664122,1.5877862595419847,-0.33433283358320837,-0.12443778110944527,0.2653673163418291,101.17652888659296,32.03868321685586,2024-09-20 14:54:16.466827520+02:00
1726836856486.3586,5.076086956521739,5.369565217391304,10.16304347826087,2.0,2.3435897435897437,426.69584245076584,-7.480916030534351,1.1450381679389312,1.83206106870229,-0.32233883058470764,-0.12893553223388304,0.26836581709145424,101.17652888659296,32.03868321685586,2024-09-20 14:54:16.486358528+02:00
1726836856505.89,5.076086956521739,5.358695652173913,10.119565217391305,2.0,2.3435897435897437,426.69584245076584,-7.6183206106870225,0.7786259541984732,2.33587786259542,-0.3328335832083958,-0.12893553223388304,0.2653673163418291,101.17652888659296,32.03868321685586,2024-09-20 14:54:16.505889792+02:00
1726836856525.4211,5.1521739130434785,5.369565217391304,10.16304347826087,2.0,2.3435897435897437,426.69584245076584,-7.0534351145038165,0.2748091603053435,2.1221374045801524,-0.3298350824587706,-0.12593703148425786,0.2698650674662669,101.17652888659296,32.03868321685586,2024-09-20 14:54:16.525421056+02:00
1726836856544.9524,5.108695652173913,5.271739130434782,10.152173913043478,2.0,2.3435897435897437,426.69584245076584,-7.7251908396946565,0.8854961832061068,1.465648854961832,-0.3268365817091454,-0.1169415292353823,0.2608695652173913,101.17377786539613,32.03868321685586,2024-09-20 14:54:16.544952320+02:00
1726836856564.4836,5.054347826086956,5.4021739130434785,10.108695652173912,2.0,2.3435897435897437,426.69584245076584,-7.557251908396946,0.6564885496183206,1.6793893129770991,-0.3313343328335832,-0.1169415292353823,0.26686656671664166,101.17652888659296,32.03868321685586,2024-09-20 14:54:16.564483584+02:00
1726836856584.015,5.119565217391304,5.380434782608695,10.195652173913043,2.0,2.3435897435897437,426.69584245076584,-7.129770992366412,0.8549618320610687,1.5877862595419847,-0.3328335832083958,-0.1169415292353823,0.2608695652173913,101.17377786539613,32.03868321685586,2024-09-20 14:54:16.584014848+02:00
1726836856603.546,5.021739130434782,5.315217391304348,10.16304347826087,2.0,2.3435897435897437,426.69584245076584,-7.755725190839694,1.4045801526717556,1.3893129770992365,-0.33433283358320837,-0.12443778110944527,0.27136431784107945,101.17377786539613,32.03868321685586,2024-09-20 14:54:16.603545856+02:00
1726836856623.0774,5.163043478260869,5.3478260869565215,10.16304347826087,2.0,2.3435897435897437,426.69584245076584,-7.099236641221374,0.10687022900763359,2.0610687022900764,-0.3268365817091454,-0.12293853073463268,0.2653673163418291,101.17377786539613,32.03868321685586,2024-09-20 14:54:16.623077376+02:00
1726836856642.6086,5.141304347826087,5.293478260869565,10.119565217391305,2.0,2.342124542124542,426.96277760400375,-7.2824427480916025,0.8396946564885496,1.6335877862595418,-0.3373313343328336,-0.1184407796101949,0.2608695652173913,101.17652888659296,32.03868321685586,2024-09-20 14:54:16.642608640+02:00
1726836856662.14,5.054347826086956,5.3478260869565215,10.184782608695652,2.0,2.3435897435897437,426.69584245076584,-7.587786259541985,1.3282442748091603,1.465648854961832,-0.335832083958021,-0.12443778110944527,0.2608695652173913,101.17102684680319,32.03868321685586,2024-09-20 14:54:16.662139904+02:00
1726836856681.6711,5.130434782608695,5.391304347826087,10.16304347826087,2.0,2.3435897435897437,426.69584245076584,-7.129770992366412,0.366412213740458,1.648854961832061,-0.32533733133433285,-0.136431784107946,0.2638680659670165,101.17377786539613,32.03868321685586,2024-09-20 14:54:16.681671168+02:00
1726836856701.2024,5.032608695652174,5.304347826086956,10.152173913043478,2.0,2.3435897435897437,426.69584245076584,-7.938931297709924,1.5419847328244274,1.8931297709923662,-0.3403298350824588,-0.12443778110944527,0.2623688155922039,101.17652888659296,32.03868321685586,2024-09-20 14:54:16.701202432+02:00
1726836856720.7336,5.130434782608695,5.380434782608695,10.130434782608695,2.0,2.3435897435897437,426.69584245076584,-7.32824427480916,0.3053435114503817,1.7099236641221374,-0.3328335832083958,-0.12743628185907047,0.2698650674662669,101.17377786539613,32.03868321685586,2024-09-20 14:54:16.720733696+02:00
1726836856740.265,5.141304347826087,5.293478260869565,10.141304347826086,2.0,2.3435897435897437,426.69584245076584,-7.1603053435114505,0.6564885496183206,2.030534351145038,-0.33883058470764615,-0.12593703148425786,0.2578710644677661,101.17377786539613,32.03868321685586,2024-09-20 14:54:16.740264960+02:00
1726836856759.796,5.08695652173913,5.369565217391304,10.130434782608695,2.0,2.3435897435897437,426.69584245076584,-7.83206106870229,1.3740458015267174,1.7862595419847327,-0.3373313343328336,-0.12293853073463268,0.2593703148425787,101.17377786539613,32.03868321685586,2024-09-20 14:54:16.759795968+02:00
1726836856779.3274,5.08695652173913,5.380434782608695,10.152173913043478,2.0,2.3435897435897437,426.69584245076584,-7.190839694656488,0.6259541984732824,1.8625954198473282,-0.3328335832083958,-0.1199400299850075,0.2638680659670165,101.17377786539613,32.03868321685586,2024-09-20 14:54:16.779327488+02:00
1726836856798.8586,5.032608695652174,5.358695652173913,10.152173913043478,2.0,2.3435897435897437,426.69584245076584,-7.3893129770992365,1.4198473282442747,1.648854961832061,-0.3313343328335832,-0.12143928035982009,0.2578710644677661,101.17652888659296,32.03868321685586,2024-09-20 14:54:16.798858752+02:00
1726836856818.39,5.08695652173913,5.33695652173913,10.152173913043478,2.0,2.3435897435897437,426.69584245076584,-7.343511450381679,0.7175572519083969,1.8015267175572518,-0.328335832083958,-0.12143928035982009,0.2638680659670165,101.17102684680319,32.03868321685586,2024-09-20 14:54:16.818390016+02:00
1726836856837.9211,5.206521739130435,5.326086956521739,10.16304347826087,2.0,2.3435897435897437,426.69584245076584,-6.961832061068702,0.2748091603053435,1.7862595419847327,-0.3328335832083958,-0.12293853073463268,0.2653673163418291,101.17102684680319,32.03868321685586,2024-09-20 14:54:16.837921024+02:00
1726836856857.4524,5.032608695652174,5.358695652173913,10.119565217391305,2.0,2.3435897435897437,426.69584245076584,-7.740458015267175,1.450381679389313,1.4351145038167938,-0.3328335832083958,-0.12743628185907047,0.2698650674662669,101.16827583081414,32.03868321685586,2024-09-20 14:54:16.857452288+02:00
1726836856876.9836,5.08695652173913,5.3478260869565215,10.152173913043478,2.0,2.3435897435897437,426.69584245076584,-7.877862595419847,0.8549618320610687,2.183206106870229,-0.335832083958021,-0.11094452773613193,0.27136431784107945,101.17652888659296,32.03868321685586,2024-09-20 14:54:16.876983552+02:00
1726836856896.515,5.1521739130434785,5.293478260869565,10.141304347826086,2.0,2.3435897435897437,426.69584245076584,-7.419847328244274,0.38167938931297707,1.297709923664122,-0.3298350824587706,-0.1199400299850075,0.2698650674662669,101.16827583081414,32.03868321685586,2024-09-20 14:54:16.896514816+02:00
1726836856916.046,5.108695652173913,5.3478260869565215,10.108695652173912,2.0,2.3435897435897437,426.69584245076584,-7.435114503816793,0.6564885496183206,1.5267175572519083,-0.3238380809595202,-0.1184407796101949,0.2638680659670165,101.17377786539613,32.03868321685586,2024-09-20 14:54:16.916045824+02:00
1726836856935.5774,5.130434782608695,5.3478260869565215,10.195652173913043,2.0,2.3450549450549456,426.42924086223053,-7.49618320610687,1.129770992366412,1.5725190839694656,-0.3313343328335832,-0.12743628185907047,0.26686656671664166,101.17377786539613,32.03868321685586,2024-09-20 14:54:16.935577344+02:00
1726836856955.1086,5.065217391304348,5.3478260869565215,10.141304347826086,2.0,2.3450549450549456,426.42924086223053,-7.587786259541985,1.114503816793893,1.66412213740458,-0.328335832083958,-0.12293853073463268,0.27586206896551724,101.17377786539613,32.03868321685586,2024-09-20 14:54:16.955108608+02:00
1726836856974.64,5.0978260869565215,5.369565217391304,10.141304347826086,2.0,2.3450549450549456,426.42924086223053,-7.633587786259541,0.9770992366412213,1.7404580152671756,-0.33433283358320837,-0.13193403298350825,0.2653673163418291,101.17292563704468,32.03362727999338,2024-09-20 14:54:16.974639872+02:00
1726836856994.1711,5.130434782608695,5.315217391304348,10.16304347826087,2.0,2.3450549450549456,426.42924086223053,-7.114503816793893,0.33587786259541985,2.0610687022900764,-0.33433283358320837,-0.12443778110944527,0.2653673163418291,101.17292563704468,32.03362727999338,2024-09-20 14:54:16.994171136+02:00
1726836857013.7024,5.108695652173913,5.33695652173913,10.130434782608695,2.0,2.3465201465201466,426.1629722135498,-7.6183206106870225,0.9923664122137404,1.83206106870229,-0.3298350824587706,-0.12593703148425786,0.2638680659670165,101.17292563704468,32.03362727999338,2024-09-20 14:54:17.013702400+02:00
1726836857033.2336,5.1521739130434785,5.358695652173913,10.16304347826087,2.0,2.3465201465201466,426.1629722135498,-7.343511450381679,0.8549618320610687,1.5114503816793892,-0.33433283358320837,-0.11394302848575712,0.26836581709145424,101.1701746407805,32.03362727999338,2024-09-20 14:54:17.033233664+02:00
1726836857052.765,5.054347826086956,5.33695652173913,10.184782608695652,2.0,2.3479853479853485,425.8970358814352,-7.633587786259541,1.4351145038167938,1.465648854961832,-0.3313343328335832,-0.13343328335832083,0.26686656671664166,101.17292563704468,32.03362727999338,2024-09-20 14:54:17.052764928+02:00
1726836857072.296,5.043478260869565,5.358695652173913,10.119565217391305,2.0,2.3465201465201466,426.1629722135498,-7.679389312977099,0.8091603053435115,1.6793893129770991,-0.3268365817091454,-0.13193403298350825,0.272863568215892,101.1701746407805,32.03362727999338,2024-09-20 14:54:17.072295936+02:00
1726836857091.8274,5.1521739130434785,5.326086956521739,10.17391304347826,2.0,2.3479853479853485,425.8970358814352,-7.32824427480916,0.4580152671755725,1.5877862595419847,-0.3298350824587706,-0.1184407796101949,0.26686656671664166,101.1701746407805,32.03362727999338,2024-09-20 14:54:17.091827456+02:00
1726836857111.3586,5.163043478260869,5.369565217391304,10.108695652173912,2.0,2.3494505494505495,425.6314312441534,-7.7251908396946565,1.2671755725190839,1.5267175572519083,-0.3268365817091454,-0.1199400299850075,0.2653673163418291,101.17292563704468,32.03362727999338,2024-09-20 14:54:17.111358720+02:00
1726836857130.89,5.076086956521739,5.369565217391304,10.141304347826086,2.0,2.3494505494505495,425.6314312441534,-7.679389312977099,1.2213740458015268,1.297709923664122,-0.3313343328335832,-0.11544227886056971,0.272863568215892,101.1701746407805,32.03362727999338,2024-09-20 14:54:17.130889984+02:00
1726836857150.4211,5.065217391304348,5.33695652173913,10.152173913043478,2.0,2.350915750915751,425.3661576815207,-7.404580152671755,1.0534351145038168,1.6946564885496183,-0.32533733133433285,-0.13193403298350825,0.26836581709145424,101.17292563704468,32.03362727999338,2024-09-20 14:54:17.150421248+02:00
1726836857169.9524,5.076086956521739,5.358695652173913,10.108695652173912,2.0,2.350915750915751,425.3661576815207,-7.206106870229007,0.8091603053435115,2.045801526717557,-0.328335832083958,-0.12593703148425786,0.272863568215892,101.1701746407805,32.03362727999338,2024-09-20 14:54:17.169952512+02:00
1726836857189.4836,5.173913043478261,5.326086956521739,10.17391304347826,2.0,2.350915750915751,425.3661576815207,-7.175572519083969,0.7480916030534351,1.618320610687023,-0.3268365817091454,-0.13043478260869565,0.2623688155922039,101.17292563704468,32.03362727999338,2024-09-20 14:54:17.189483520+02:00
1726836857209.015,5.108695652173913,5.33695652173913,10.097826086956522,2.0,2.350915750915751,425.3661576815207,-7.66412213740458,1.1908396946564885,1.5877862595419847,-0.33433283358320837,-0.12443778110944527,0.2698650674662669,101.17292563704468,32.03362727999338,2024-09-20 14:54:17.209014784+02:00
1726836857228.546,5.065217391304348,5.3478260869565215,10.152173913043478,2.0,2.352380952380952,425.1012145748988,-7.465648854961832,0.9007633587786259,1.5572519083969465,-0.33433283358320837,-0.12893553223388304,0.27136431784107945,101.17292563704468,32.03362727999338,2024-09-20 14:54:17.228545792+02:00
1726836857248.0774,5.076086956521739,5.413043478260869,10.195652173913043,2.0,2.352380952380952,425.1012145748988,-7.3893129770992365,0.42748091603053434,1.7251908396946565,-0.3238380809595202,-0.13043478260869565,0.2653673163418291,101.1701746407805,32.03362727999338,2024-09-20 14:54:17.248077312+02:00
1726836857267.6086,5.010869565217392,5.33695652173913,10.152173913043478,2.0,2.353846153846154,424.83660130718954,-7.755725190839694,1.099236641221374,2.045801526717557,-0.3313343328335832,-0.12593703148425786,0.27136431784107945,101.1701746407805,32.03362727999338,2024-09-20 14:54:17.267608576+02:00
1726836857287.14,5.119565217391304,5.326086956521739,10.16304347826087,2.0,2.353846153846154,424.83660130718954,-7.007633587786259,0.6412213740458015,1.648854961832061,-0.3298350824587706,-0.11244377811094453,0.2653673163418291,101.17292563704468,32.03362727999338,2024-09-20 14:54:17.287139840+02:00
1726836857306.6711,5.119565217391304,5.33695652173913,10.108695652173912,2.0,2.353846153846154,424.83660130718954,-7.572519083969465,0.9770992366412213,1.4809160305343512,-0.33433283358320837,-0.12143928035982009,0.2608695652173913,101.1646726560637,32.03362727999338,2024-09-20 14:54:17.306671104+02:00
1726836857326.2024,5.043478260869565,5.33695652173913,10.130434782608695,2.0,2.355311355311355,424.5723172628305,-7.541984732824427,0.6259541984732824,1.648854961832061,-0.3328335832083958,-0.12593703148425786,0.26686656671664166,101.18117864146024,32.03362727999338,2024-09-20 14:54:17.326202368+02:00
1726836857345.7336,5.119565217391304,5.3478260869565215,10.184782608695652,2.0,2.355311355311355,424.5723172628305,-7.435114503816793,0.6259541984732824,1.8015267175572518,-0.3328335832083958,-0.12143928035982009,0.2623688155922039,101.1756766359127,32.03362727999338,2024-09-20 14:54:17.345733632+02:00
1726836857365.265,5.108695652173913,5.326086956521739,10.119565217391305,2.0,2.356776556776557,424.30836182778984,-7.404580152671755,1.0534351145038168,1.9083969465648853,-0.3238380809595202,-0.1169415292353823,0.26686656671664166,101.17292563704468,32.03362727999338,2024-09-20 14:54:17.365264896+02:00
1726836857384.796,5.119565217391304,5.358695652173913,10.119565217391305,2.0,2.356776556776557,424.30836182778984,-7.114503816793893,0.732824427480916,1.816793893129771,-0.3313343328335832,-0.12893553223388304,0.2608695652173913,101.1701746407805,32.03362727999338,2024-09-20 14:54:17.384795904+02:00
1726836857404.3274,5.1521739130434785,5.358695652173913,10.16304347826087,2.0,2.3582417582417583,424.04473438956194,-7.7251908396946565,0.916030534351145,1.5725190839694656,-0.32233883058470764,-0.12443778110944527,0.2653673163418291,101.1701746407805,32.03362727999338,2024-09-20 14:54:17.404327424+02:00
1726836857423.8586,5.0978260869565215,5.369565217391304,10.16304347826087,2.0,2.3582417582417583,424.04473438956194,-7.465648854961832,0.9770992366412213,1.4961832061068703,-0.3328335832083958,-0.12293853073463268,0.2623688155922039,101.1701746407805,32.03362727999338,2024-09-20 14:54:17.423858688+02:00
1726836857443.39,5.08695652173913,5.358695652173913,10.152173913043478,2.0,2.3582417582417583,424.04473438956194,-7.099236641221374,0.8091603053435115,1.450381679389313,-0.33433283358320837,-0.12293853073463268,0.2638680659670165,101.1646726560637,32.03362727999338,2024-09-20 14:54:17.443389952+02:00
1726836857462.9211,5.08695652173913,5.358695652173913,10.16304347826087,2.0,2.3597069597069598,423.78143433716235,-7.49618320610687,0.7786259541984732,1.7251908396946565,-0.3298350824587706,-0.1169415292353823,0.2653673163418291,101.1701746407805,32.03362727999338,2024-09-20 14:54:17.462921216+02:00
1726836857482.4524,5.08695652173913,5.391304347826087,10.16304347826087,2.0,2.3597069597069598,423.78143433716235,-7.221374045801526,0.41221374045801523,1.8625954198473282,-0.3328335832083958,-0.1199400299850075,0.2653673163418291,101.17292563704468,32.03362727999338,2024-09-20 14:54:17.482452480+02:00
1726836857501.9836,5.119565217391304,5.3478260869565215,10.130434782608695,2.0,2.3597069597069598,423.78143433716235,-7.3893129770992365,0.7938931297709924,1.6030534351145038,-0.33883058470764615,-0.1199400299850075,0.26836581709145424,101.17292563704468,32.03362727999338,2024-09-20 14:54:17.501983744+02:00
1726836857521.515,5.119565217391304,5.326086956521739,10.119565217391305,2.0,2.361172161172161,423.51846106112316,-7.404580152671755,0.9770992366412213,1.4351145038167938,-0.3328335832083958,-0.11544227886056971,0.2608695652173913,101.17292563704468,32.03362727999338,2024-09-20 14:54:17.521515008+02:00
1726836857541.046,5.0978260869565215,5.33695652173913,10.141304347826086,2.0,2.361172161172161,423.51846106112316,-7.557251908396946,0.9923664122137404,1.6030534351145038,-0.3328335832083958,-0.12743628185907047,0.26836581709145424,101.1756766359127,32.03362727999338,2024-09-20 14:54:17.541046016+02:00
1726836857560.5774,5.108695652173913,5.33695652173913,10.141304347826086,2.0,2.3626373626373627,423.25581395348837,-7.358778625954198,0.9007633587786259,1.4809160305343512,-0.3373313343328336,-0.1199400299850075,0.27136431784107945,101.1701746407805,32.03362727999338,2024-09-20 14:54:17.560577280+02:00
1726836857580.1086,5.0978260869565215,5.326086956521739,10.152173913043478,2.0,2.3626373626373627,423.25581395348837,-7.435114503816793,0.47328244274809156,1.7251908396946565,-0.33433283358320837,-0.12593703148425786,0.2653673163418291,101.1756766359127,32.03362727999338,2024-09-20 14:54:17.580108544+02:00
1726836857599.64,5.08695652173913,5.358695652173913,10.152173913043478,2.0,2.3626373626373627,423.25581395348837,-7.603053435114504,0.8854961832061068,1.8778625954198473,-0.3328335832083958,-0.12293853073463268,0.2698650674662669,101.16742364712019,32.03362727999338,2024-09-20 14:54:17.599639808+02:00
1726836857619.1711,5.0978260869565215,5.3478260869565215,10.152173913043478,2.0,2.3626373626373627,423.25581395348837,-7.694656488549618,1.099236641221374,1.618320610687023,-0.3238380809595202,-0.12743628185907047,0.27436281859070466,101.17292563704468,32.03362727999338,2024-09-20 14:54:17.619171072+02:00
1726836857638.7024,5.08695652173913,5.380434782608695,10.141304347826086,2.0,2.3626373626373627,423.25581395348837,-7.2824427480916025,0.9618320610687022,1.8015267175572518,-0.3328335832083958,-0.12593703148425786,0.2623688155922039,101.17292563704468,32.03362727999338,2024-09-20 14:54:17.638702336+02:00
1726836857658.2336,5.076086956521739,5.369565217391304,10.130434782608695,2.0,2.364102564102564,422.99349240780913,-7.923664122137405,0.9465648854961831,1.5877862595419847,-0.33883058470764615,-0.12143928035982009,0.26836581709145424,101.17292563704468,32.03362727999338,2024-09-20 14:54:17.658233600+02:00
1726836857677.765,5.076086956521739,5.358695652173913,10.152173913043478,2.0,2.364102564102564,422.99349240780913,-7.374045801526718,1.0534351145038168,1.6335877862595418,-0.3328335832083958,-0.1169415292353823,0.2578710644677661,101.1701746407805,32.03362727999338,2024-09-20 14:54:17.677764864+02:00
1726836857697.296,5.108695652173913,5.33695652173913,10.152173913043478,2.0,2.3626373626373627,423.25581395348837,-7.480916030534351,0.6870229007633587,1.83206106870229,-0.33433283358320837,-0.12443778110944527,0.26686656671664166,101.1701746407805,32.03362727999338,2024-09-20 14:54:17.697295872+02:00
1726836857716.8274,5.130434782608695,5.326086956521739,10.152173913043478,2.0,2.365567765567765,422.73149581913907,-7.114503816793893,0.8396946564885496,1.83206106870229,-0.335832083958021,-0.12893553223388304,0.2638680659670165,101.1701746407805,32.03362727999338,2024-09-20 14:54:17.716827392+02:00
1726836857736.3586,5.108695652173913,5.358695652173913,10.130434782608695,2.0,2.365567765567765,422.73149581913907,-7.480916030534351,0.8854961832061068,1.5877862595419847,-0.3268365817091454,-0.1199400299850075,0.2638680659670165,101.18117864146024,32.03362727999338,2024-09-20 14:54:17.736358656+02:00
1726836857755.89,5.08695652173913,5.3478260869565215,10.152173913043478,2.0,2.365567765567765,422.73149581913907,-7.435114503816793,0.8702290076335878,1.5725190839694656,-0.3373313343328336,-0.12743628185907047,0.27136431784107945,101.17842763738454,32.03362727999338,2024-09-20 14:54:17.755889920+02:00
1726836857775.4211,5.08695652173913,5.33695652173913,10.141304347826086,2.0,2.365567765567765,422.73149581913907,-7.374045801526718,0.6564885496183206,1.7709923664122136,-0.33883058470764615,-0.13493253373313344,0.2563718140929535,101.17292563704468,32.03362727999338,2024-09-20 14:54:17.775421184+02:00
1726836857794.9524,5.119565217391304,5.358695652173913,10.130434782608695,2.0,2.365567765567765,422.73149581913907,-7.526717557251908,0.5801526717557252,1.6335877862595418,-0.32533733133433285,-0.12443778110944527,0.2638680659670165,101.17292563704468,32.03362727999338,2024-09-20 14:54:17.794952448+02:00
1726836857814.4836,5.108695652173913,5.315217391304348,10.16304347826087,2.0,2.365567765567765,422.73149581913907,-7.587786259541985,1.0381679389312977,1.6793893129770991,-0.335832083958021,-0.11394302848575712,0.2608695652173913,101.18392964813978,32.03362727999338,2024-09-20 14:54:17.814483712+02:00
1726836857834.015,5.076086956521739,5.358695652173913,10.152173913043478,2.0,2.365567765567765,422.73149581913907,-7.267175572519084,1.0687022900763359,1.5419847328244274,-0.33433283358320837,-0.1169415292353823,0.26686656671664166,101.1756766359127,32.03362727999338,2024-09-20 14:54:17.834014976+02:00
1726836857853.546,5.076086956521739,5.33695652173913,10.16304347826087,2.0,2.367032967032967,422.4698235840297,-7.511450381679389,0.8854961832061068,1.5267175572519083,-0.3298350824587706,-0.11544227886056971,0.2698650674662669,101.16742364712019,32.03362727999338,2024-09-20 14:54:17.853545984+02:00
1726836857873.0774,5.0978260869565215,5.33695652173913,10.119565217391305,2.0,2.367032967032967,422.4698235840297,-7.404580152671755,0.6259541984732824,1.7404580152671756,-0.3298350824587706,-0.11544227886056971,0.26686656671664166,101.1701746407805,32.03362727999338,2024-09-20 14:54:17.873077504+02:00
1726836857892.6086,5.08695652173913,5.33695652173913,10.141304347826086,2.0,2.367032967032967,422.4698235840297,-7.557251908396946,0.9618320610687022,1.9236641221374045,-0.3313343328335832,-0.13043478260869565,0.2608695652173913,101.17292563704468,32.03362727999338,2024-09-20 14:54:17.892608768+02:00
1726836857912.14,5.108695652173913,5.358695652173913,10.141304347826086,2.0,2.365567765567765,422.73149581913907,-7.297709923664121,0.7786259541984732,1.3587786259541985,-0.33433283358320837,-0.12743628185907047,0.2623688155922039,101.1701746407805,32.03362727999338,2024-09-20 14:54:17.912139776+02:00
1726836857931.6711,5.0978260869565215,5.326086956521739,10.130434782608695,2.0,2.367032967032967,422.4698235840297,-7.7251908396946565,0.7938931297709924,1.5114503816793892,-0.3298350824587706,-0.13043478260869565,0.27136431784107945,101.1756766359127,32.03362727999338,2024-09-20 14:54:17.931671040+02:00
1726836857951.2024,5.108695652173913,5.3478260869565215,10.152173913043478,2.0,2.367032967032967,422.4698235840297,-7.343511450381679,0.8549618320610687,1.618320610687023,-0.328335832083958,-0.12293853073463268,0.26686656671664166,101.1701746407805,32.03362727999338,2024-09-20 14:54:17.951202304+02:00
1726836857970.7336,5.08695652173913,5.358695652173913,10.097826086956522,2.0,2.367032967032967,422.4698235840297,-7.32824427480916,1.1755725190839694,1.6335877862595418,-0.3298350824587706,-0.1199400299850075,0.2653673163418291,101.17187905561111,32.04373915400938,2024-09-20 14:54:17.970733568+02:00
1726836857990.265,5.08695652173913,5.3478260869565215,10.16304347826087,2.0,2.367032967032967,422.4698235840297,-7.175572519083969,0.9465648854961831,1.7557251908396947,-0.3298350824587706,-0.1169415292353823,0.2638680659670165,101.17463009653287,32.04373915400938,2024-09-20 14:54:17.990264832+02:00
1726836858009.796,5.0978260869565215,5.326086956521739,10.16304347826087,2.0,2.367032967032967,422.4698235840297,-7.557251908396946,0.8549618320610687,1.7099236641221374,-0.3313343328335832,-0.11394302848575712,0.272863568215892,101.17187905561111,32.04373915400938,2024-09-20 14:54:18.009795840+02:00
1726836858029.3274,5.0978260869565215,5.369565217391304,10.141304347826086,2.0,2.367032967032967,422.4698235840297,-7.7251908396946565,1.1450381679389312,1.816793893129771,-0.3298350824587706,-0.1169415292353823,0.2638680659670165,101.17463009653287,32.04373915400938,2024-09-20 14:54:18.029327360+02:00
1726836858048.8586,5.108695652173913,5.33695652173913,10.17391304347826,2.0,2.365567765567765,422.73149581913907,-7.419847328244274,0.564885496183206,1.8778625954198473,-0.3298350824587706,-0.1169415292353823,0.2653673163418291,101.17463009653287,32.04373915400938,2024-09-20 14:54:18.048858624+02:00
1726836858068.39,5.119565217391304,5.358695652173913,10.130434782608695,2.0,2.367032967032967,422.4698235840297,-7.404580152671755,0.5954198473282443,1.5267175572519083,-0.3268365817091454,-0.13193403298350825,0.2653673163418291,101.17187905561111,32.04373915400938,2024-09-20 14:54:18.068389888+02:00
1726836858087.9211,5.108695652173913,5.326086956521739,10.141304347826086,2.0,2.367032967032967,422.4698235840297,-7.465648854961832,1.0381679389312977,1.8625954198473282,-0.328335832083958,-0.136431784107946,0.272863568215892,101.17463009653287,32.04373915400938,2024-09-20 14:54:18.087921152+02:00
1726836858107.4524,5.08695652173913,5.33695652173913,10.152173913043478,2.0,2.367032967032967,422.4698235840297,-7.236641221374046,0.47328244274809156,1.5572519083969465,-0.32083958020989506,-0.1424287856071964,0.2638680659670165,101.17463009653287,32.04373915400938,2024-09-20 14:54:18.107452416+02:00
1726836858126.9836,5.108695652173913,5.33695652173913,10.141304347826086,2.0,2.365567765567765,422.73149581913907,-7.679389312977099,1.0381679389312977,1.7251908396946565,-0.3313343328335832,-0.12293853073463268,0.26686656671664166,101.16912801729329,32.04373915400938,2024-09-20 14:54:18.126983680+02:00
1726836858146.515,5.130434782608695,5.369565217391304,10.141304347826086,2.0,2.365567765567765,422.73149581913907,-7.2824427480916025,0.6412213740458015,1.83206106870229,-0.3313343328335832,-0.12593703148425786,0.2698650674662669,101.17187905561111,32.04373915400938,2024-09-20 14:54:18.146514944+02:00
1726836858166.046,5.0978260869565215,5.358695652173913,10.16304347826087,2.0,2.365567765567765,422.73149581913907,-7.587786259541985,0.9007633587786259,1.8473282442748091,-0.33883058470764615,-0.1184407796101949,0.2623688155922039,101.17463009653287,32.04373915400938,2024-09-20 14:54:18.166045952+02:00
1726836858185.5774,5.08695652173913,5.380434782608695,10.130434782608695,2.0,2.365567765567765,422.73149581913907,-7.419847328244274,0.7480916030534351,1.8015267175572518,-0.3373313343328336,-0.11544227886056971,0.2698650674662669,101.17738114005854,32.04373915400938,2024-09-20 14:54:18.185577472+02:00
1726836858205.1086,5.08695652173913,5.3478260869565215,10.152173913043478,2.0,2.365567765567765,422.73149581913907,-7.7251908396946565,0.7786259541984732,1.83206106870229,-0.33433283358320837,-0.11394302848575712,0.2698650674662669,101.17463009653287,32.04373915400938,2024-09-20 14:54:18.205108736+02:00
1726836858224.64,5.119565217391304,5.326086956521739,10.141304347826086,2.0,2.365567765567765,422.73149581913907,-7.419847328244274,0.7633587786259541,2.045801526717557,-0.328335832083958,-0.12593703148425786,0.2698650674662669,101.17463009653287,32.04373915400938,2024-09-20 14:54:18.224640+02:00
1726836858244.1711,5.119565217391304,5.3478260869565215,10.152173913043478,2.0,2.365567765567765,422.73149581913907,-7.435114503816793,0.7480916030534351,1.9083969465648853,-0.3298350824587706,-0.11244377811094453,0.2638680659670165,101.17463009653287,32.04373915400938,2024-09-20 14:54:18.244171264+02:00
1726836858263.7024,5.0978260869565215,5.33695652173913,10.119565217391305,2.0,2.365567765567765,422.73149581913907,-7.465648854961832,1.0687022900763359,1.7251908396946565,-0.33433283358320837,-0.12893553223388304,0.2698650674662669,101.17187905561111,32.04373915400938,2024-09-20 14:54:18.263702272+02:00
1726836858283.2336,5.108695652173913,5.315217391304348,10.141304347826086,2.0,2.365567765567765,422.73149581913907,-7.526717557251908,0.366412213740458,1.4198473282442747,-0.3298350824587706,-0.12593703148425786,0.2638680659670165,101.17187905561111,32.04373915400938,2024-09-20 14:54:18.283233536+02:00
1726836858302.765,5.08695652173913,5.326086956521739,10.141304347826086,2.0,2.365567765567765,422.73149581913907,-7.3893129770992365,0.7786259541984732,1.8015267175572518,-0.328335832083958,-0.12443778110944527,0.2653673163418291,101.17463009653287,32.04373915400938,2024-09-20 14:54:18.302764800+02:00
1726836858322.296,5.065217391304348,5.358695652173913,10.141304347826086,2.0,2.364102564102564,422.99349240780913,-7.572519083969465,1.0076335877862594,1.8931297709923662,-0.32533733133433285,-0.1184407796101949,0.26686656671664166,101.17187905561111,32.04373915400938,2024-09-20 14:54:18.322295808+02:00
1726836858341.8274,5.108695652173913,5.369565217391304,10.130434782608695,2.0,2.364102564102564,422.99349240780913,-7.206106870229007,0.7786259541984732,1.816793893129771,-0.32533733133433285,-0.1199400299850075,0.2638680659670165,101.17463009653287,32.04373915400938,2024-09-20 14:54:18.341827328+02:00
1726836858361.3586,5.119565217391304,5.3478260869565215,10.16304347826087,2.0,2.364102564102564,422.99349240780913,-7.511450381679389,0.6717557251908397,1.7404580152671756,-0.33433283358320837,-0.11244377811094453,0.26686656671664166,101.17187905561111,32.04373915400938,2024-09-20 14:54:18.361358592+02:00
1726836858380.89,5.108695652173913,5.326086956521739,10.119565217391305,2.0,2.364102564102564,422.99349240780913,-7.66412213740458,0.42748091603053434,1.7099236641221374,-0.3328335832083958,-0.1199400299850075,0.272863568215892,101.17463009653287,32.04373915400938,2024-09-20 14:54:18.380889856+02:00
1726836858400.4211,5.108695652173913,5.358695652173913,10.17391304347826,2.0,2.3626373626373627,423.25581395348837,-7.374045801526718,0.3511450381679389,1.7404580152671756,-0.335832083958021,-0.13043478260869565,0.2638680659670165,101.17187905561111,32.04373915400938,2024-09-20 14:54:18.400421120+02:00
1726836858419.9524,5.076086956521739,5.304347826086956,10.184782608695652,2.0,2.364102564102564,422.99349240780913,-7.419847328244274,0.564885496183206,1.5877862595419847,-0.328335832083958,-0.12593703148425786,0.2698650674662669,101.17463009653287,32.04373915400938,2024-09-20 14:54:18.419952384+02:00
1726836858439.4836,5.119565217391304,5.326086956521739,10.130434782608695,2.0,2.3626373626373627,423.25581395348837,-7.679389312977099,0.9923664122137404,1.5267175572519083,-0.3313343328335832,-0.13043478260869565,0.26836581709145424,101.17463009653287,32.04373915400938,2024-09-20 14:54:18.439483648+02:00
1726836858459.015,5.119565217391304,5.326086956521739,10.16304347826087,2.0,2.3626373626373627,423.25581395348837,-7.236641221374046,0.366412213740458,1.8778625954198473,-0.3268365817091454,-0.12443778110944527,0.2653673163418291,101.17463009653287,32.04373915400938,2024-09-20 14:54:18.459014912+02:00
1726836858478.546,5.08695652173913,5.3478260869565215,10.141304347826086,2.0,2.3626373626373627,423.25581395348837,-7.557251908396946,0.564885496183206,1.9083969465648853,-0.33433283358320837,-0.11094452773613193,0.26836581709145424,101.16912801729329,32.04373915400938,2024-09-20 14:54:18.478545920+02:00
1726836858498.0774,5.076086956521739,5.3478260869565215,10.141304347826086,2.0,2.3626373626373627,423.25581395348837,-7.297709923664121,0.7786259541984732,1.4961832061068703,-0.3328335832083958,-0.12293853073463268,0.27436281859070466,101.17187905561111,32.04373915400938,2024-09-20 14:54:18.498077440+02:00
1726836858517.6086,5.108695652173913,5.33695652173913,10.152173913043478,2.0,2.361172161172161,423.51846106112316,-7.816793893129771,0.48854961832061067,1.816793893129771,-0.3328335832083958,-0.12293853073463268,0.26686656671664166,101.16912801729329,32.04373915400938,2024-09-20 14:54:18.517608704+02:00
1726836858537.14,5.08695652173913,5.358695652173913,10.141304347826086,2.0,2.361172161172161,423.51846106112316,-7.557251908396946,0.5954198473282443,1.8015267175572518,-0.3313343328335832,-0.1184407796101949,0.2563718140929535,101.17738114005854,32.04373915400938,2024-09-20 14:54:18.537139968+02:00
1726836858556.6711,5.108695652173913,5.358695652173913,10.130434782608695,2.0,2.361172161172161,423.51846106112316,-7.435114503816793,0.916030534351145,1.9541984732824427,-0.335832083958021,-0.12293853073463268,0.27136431784107945,101.17187905561111,32.04373915400938,2024-09-20 14:54:18.556671232+02:00
1726836858576.2024,5.141304347826087,5.369565217391304,10.108695652173912,2.0,2.3597069597069598,423.78143433716235,-7.435114503816793,0.9465648854961831,1.83206106870229,-0.33433283358320837,-0.1199400299850075,0.26836581709145424,101.17463009653287,32.04373915400938,2024-09-20 14:54:18.576202496+02:00
1726836858595.7336,5.119565217391304,5.3478260869565215,10.152173913043478,2.0,2.3597069597069598,423.78143433716235,-7.297709923664121,0.5801526717557252,1.7557251908396947,-0.32083958020989506,-0.136431784107946,0.26686656671664166,101.16912801729329,32.04373915400938,2024-09-20 14:54:18.595733760+02:00
1726836858615.265,5.119565217391304,5.326086956521739,10.119565217391305,2.0,2.3597069597069598,423.78143433716235,-7.694656488549618,0.6412213740458015,1.4809160305343512,-0.32233883058470764,-0.13043478260869565,0.272863568215892,101.17187905561111,32.04373915400938,2024-09-20 14:54:18.615264768+02:00
1726836858634.796,5.108695652173913,5.326086956521739,10.130434782608695,2.0,2.3597069597069598,423.78143433716235,-7.343511450381679,0.6564885496183206,1.7099236641221374,-0.3268365817091454,-0.12893553223388304,0.27136431784107945,101.17463009653287,32.04373915400938,2024-09-20 14:54:18.634796032+02:00
1726836858654.3274,5.108695652173913,5.3478260869565215,10.152173913043478,2.0,2.3582417582417583,424.04473438956194,-7.450381679389313,0.2748091603053435,1.5419847328244274,-0.33883058470764615,-0.13043478260869565,0.26836581709145424,101.17463009653287,32.04373915400938,2024-09-20 14:54:18.654327296+02:00
1726836858673.8586,5.141304347826087,5.358695652173913,10.141304347826086,2.0,2.3582417582417583,424.04473438956194,-7.511450381679389,0.6412213740458015,1.7557251908396947,-0.3373313343328336,-0.11544227886056971,0.2623688155922039,101.16912801729329,32.04373915400938,2024-09-20 14:54:18.673858560+02:00
1726836858693.39,5.119565217391304,5.326086956521739,10.16304347826087,2.0,2.3582417582417583,424.04473438956194,-7.343511450381679,0.6259541984732824,1.5725190839694656,-0.335832083958021,-0.1184407796101949,0.26686656671664166,101.16912801729329,32.04373915400938,2024-09-20 14:54:18.693389824+02:00
1726836858712.9211,5.0978260869565215,5.315217391304348,10.141304347826086,2.0,2.356776556776557,424.30836182778984,-7.480916030534351,0.732824427480916,1.6030534351145038,-0.3328335832083958,-0.1169415292353823,0.272863568215892,101.17463009653287,32.04373915400938,2024-09-20 14:54:18.712921088+02:00
1726836858732.4524,5.119565217391304,5.358695652173913,10.141304347826086,2.0,2.356776556776557,424.30836182778984,-7.2824427480916025,0.6717557251908397,1.5877862595419847,-0.32533733133433285,-0.1199400299850075,0.2578710644677661,101.17463009653287,32.04373915400938,2024-09-20 14:54:18.732452352+02:00
1726836858751.9836,5.119565217391304,5.326086956521739,10.141304347826086,2.0,2.355311355311355,424.5723172628305,-7.236641221374046,0.7633587786259541,1.6793893129770991,-0.3328335832083958,-0.1199400299850075,0.2638680659670165,101.16912801729329,32.04373915400938,2024-09-20 14:54:18.751983616+02:00
1726836858771.515,5.119565217391304,5.358695652173913,10.152173913043478,2.0,2.355311355311355,424.5723172628305,-7.419847328244274,0.7175572519083969,1.7099236641221374,-0.3238380809595202,-0.13193403298350825,0.2593703148425787,101.17187905561111,32.04373915400938,2024-09-20 14:54:18.771514880+02:00
1726836858791.046,5.141304347826087,5.3478260869565215,10.141304347826086,2.0,2.355311355311355,424.5723172628305,-7.511450381679389,0.8244274809160305,1.6793893129770991,-0.3313343328335832,-0.12593703148425786,0.26836581709145424,101.17463009653287,32.04373915400938,2024-09-20 14:54:18.791045888+02:00
1726836858810.5774,5.130434782608695,5.33695652173913,10.152173913043478,2.0,2.355311355311355,424.5723172628305,-7.343511450381679,0.8396946564885496,1.7709923664122136,-0.3313343328335832,-0.10494752623688156,0.27136431784107945,101.16912801729329,32.04373915400938,2024-09-20 14:54:18.810577408+02:00
1726836858830.1086,5.108695652173913,5.3478260869565215,10.119565217391305,2.0,2.355311355311355,424.5723172628305,-7.66412213740458,1.0076335877862594,1.5572519083969465,-0.328335832083958,-0.12143928035982009,0.2593703148425787,101.17187905561111,32.04373915400938,2024-09-20 14:54:18.830108672+02:00
1726836858849.64,5.108695652173913,5.369565217391304,10.119565217391305,2.0,2.355311355311355,424.5723172628305,-7.633587786259541,0.549618320610687,1.9083969465648853,-0.3313343328335832,-0.12293853073463268,0.2698650674662669,101.17187905561111,32.04373915400938,2024-09-20 14:54:18.849639936+02:00
1726836858869.1711,5.141304347826087,5.33695652173913,10.130434782608695,2.0,2.353846153846154,424.83660130718954,-7.49618320610687,0.7175572519083969,1.66412213740458,-0.3373313343328336,-0.1199400299850075,0.27586206896551724,101.17738114005854,32.04373915400938,2024-09-20 14:54:18.869171200+02:00
1726836858888.7024,5.108695652173913,5.3478260869565215,10.152173913043478,2.0,2.353846153846154,424.83660130718954,-7.175572519083969,0.8244274809160305,2.015267175572519,-0.33883058470764615,-0.12143928035982009,0.2653673163418291,101.17187905561111,32.04373915400938,2024-09-20 14:54:18.888702464+02:00
1726836858908.2336,5.108695652173913,5.3478260869565215,10.130434782608695,2.0,2.353846153846154,424.83660130718954,-7.587786259541985,1.1450381679389312,1.6030534351145038,-0.3403298350824588,-0.1169415292353823,0.2623688155922039,101.17187905561111,32.04373915400938,2024-09-20 14:54:18.908233728+02:00
1726836858927.765,5.08695652173913,5.369565217391304,10.130434782608695,2.0,2.352380952380952,425.1012145748988,-7.66412213740458,0.9618320610687022,1.6335877862595418,-0.3298350824587706,-0.12743628185907047,0.2638680659670165,101.17187905561111,32.04373915400938,2024-09-20 14:54:18.927764992+02:00
1726836858947.296,5.119565217391304,5.3478260869565215,10.141304347826086,2.0,2.352380952380952,425.1012145748988,-7.557251908396946,0.8549618320610687,1.83206106870229,-0.32533733133433285,-0.13043478260869565,0.26836581709145424,101.17187905561111,32.04373915400938,2024-09-20 14:54:18.947296+02:00
1726836858966.8274,5.1521739130434785,5.3478260869565215,10.141304347826086,2.0,2.352380952380952,425.1012145748988,-7.465648854961832,0.6412213740458015,1.5267175572519083,-0.34332833583208394,-0.1409295352323838,0.27586206896551724,101.17187905561111,32.04373915400938,2024-09-20 14:54:18.966827520+02:00
1726836858986.3586,5.130434782608695,5.326086956521739,10.119565217391305,2.0,2.350915750915751,425.3661576815207,-7.267175572519084,1.0076335877862594,1.5572519083969465,-0.3328335832083958,-0.12593703148425786,0.2638680659670165,101.17463009653287,32.04373915400938,2024-09-20 14:54:18.986358528+02:00
1726836859005.89,5.108695652173913,5.3478260869565215,10.119565217391305,2.0,2.350915750915751,425.3661576815207,-7.511450381679389,1.0687022900763359,1.465648854961832,-0.32533733133433285,-0.13043478260869565,0.2638680659670165,101.17463009653287,32.04373915400938,2024-09-20 14:54:19.005889792+02:00
1726836859025.4211,5.08695652173913,5.33695652173913,10.141304347826086,2.0,2.350915750915751,425.3661576815207,-7.358778625954198,1.114503816793893,2.045801526717557,-0.33433283358320837,-0.12743628185907047,0.2623688155922039,101.18013218618815,32.04373915400938,2024-09-20 14:54:19.025421056+02:00
1726836859044.9524,5.108695652173913,5.3478260869565215,10.141304347826086,2.0,2.3494505494505495,425.6314312441534,-7.603053435114504,0.8549618320610687,1.6793893129770991,-0.3328335832083958,-0.12293853073463268,0.272863568215892,101.17187905561111,32.04373915400938,2024-09-20 14:54:19.044952320+02:00
1726836859064.4836,5.119565217391304,5.3478260869565215,10.152173913043478,2.0,2.3494505494505495,425.6314312441534,-7.236641221374046,0.7633587786259541,1.7404580152671756,-0.3403298350824588,-0.11544227886056971,0.27136431784107945,101.17463009653287,32.04373915400938,2024-09-20 14:54:19.064483584+02:00
1726836859084.015,5.119565217391304,5.358695652173913,10.108695652173912,2.0,2.3494505494505495,425.6314312441534,-7.3893129770992365,0.8854961832061068,1.8015267175572518,-0.3373313343328336,-0.1184407796101949,0.26836581709145424,101.16912801729329,32.04373915400938,2024-09-20 14:54:19.084014848+02:00
1726836859103.546,5.119565217391304,5.3478260869565215,10.130434782608695,2.0,2.3465201465201466,426.1629722135498,-7.465648854961832,1.0534351145038168,1.5877862595419847,-0.3328335832083958,-0.12293853073463268,0.2638680659670165,101.17463009653287,32.04373915400938,2024-09-20 14:54:19.103545856+02:00
1726836859123.0774,5.130434782608695,5.358695652173913,10.119565217391305,2.0,2.3479853479853485,425.8970358814352,-7.49618320610687,0.9312977099236641,1.5877862595419847,-0.3238380809595202,-0.12143928035982009,0.26836581709145424,101.17738114005854,32.04373915400938,2024-09-20 14:54:19.123077376+02:00
1726836859142.6086,5.119565217391304,5.33695652173913,10.130434782608695,2.0,2.3479853479853485,425.8970358814352,-7.541984732824427,0.8854961832061068,1.7557251908396947,-0.3268365817091454,-0.12143928035982009,0.2593703148425787,101.17738114005854,32.04373915400938,2024-09-20 14:54:19.142608640+02:00
1726836859162.14,5.0978260869565215,5.3478260869565215,10.130434782608695,2.0,2.3465201465201466,426.1629722135498,-7.603053435114504,1.114503816793893,2.015267175572519,-0.3328335832083958,-0.12743628185907047,0.26686656671664166,101.16912801729329,32.04373915400938,2024-09-20 14:54:19.162139904+02:00
1726836859181.6711,5.130434782608695,5.3478260869565215,10.152173913043478,2.0,2.3465201465201466,426.1629722135498,-7.465648854961832,0.6259541984732824,1.7557251908396947,-0.3298350824587706,-0.11394302848575712,0.26686656671664166,101.17187905561111,32.04373915400938,2024-09-20 14:54:19.181671168+02:00
1726836859201.2024,5.119565217391304,5.3478260869565215,10.130434782608695,2.0,2.3465201465201466,426.1629722135498,-7.740458015267175,0.9770992366412213,1.8625954198473282,-0.3313343328335832,-0.1169415292353823,0.2638680659670165,101.17187905561111,32.04373915400938,2024-09-20 14:54:19.201202432+02:00
1726836859220.7336,5.108695652173913,5.3478260869565215,10.17391304347826,2.0,2.3465201465201466,426.1629722135498,-7.297709923664121,0.9465648854961831,1.6030534351145038,-0.33433283358320837,-0.11544227886056971,0.27586206896551724,101.16637698157938,32.04373915400938,2024-09-20 14:54:19.220733696+02:00
1726836859240.265,5.108695652173913,5.369565217391304,10.119565217391305,2.0,2.3450549450549456,426.42924086223053,-7.190839694656488,1.0534351145038168,1.5114503816793892,-0.3403298350824588,-0.11394302848575712,0.2638680659670165,101.17463009653287,32.04373915400938,2024-09-20 14:54:19.240264960+02:00
1726836859259.796,5.108695652173913,5.358695652173913,10.130434782608695,2.0,2.3450549450549456,426.42924086223053,-7.297709923664121,1.1450381679389312,1.5725190839694656,-0.3313343328335832,-0.11244377811094453,0.2608695652173913,101.18013218618815,32.04373915400938,2024-09-20 14:54:19.259795968+02:00
1726836859279.3274,5.119565217391304,5.33695652173913,10.108695652173912,2.0,2.3450549450549456,426.42924086223053,-7.343511450381679,0.7786259541984732,2.0,-0.335832083958021,-0.12143928035982009,0.2623688155922039,101.17463009653287,32.04373915400938,2024-09-20 14:54:19.279327488+02:00
1726836859298.8586,5.0978260869565215,5.3478260869565215,10.141304347826086,2.0,2.3450549450549456,426.42924086223053,-7.2824427480916025,0.4427480916030534,1.6335877862595418,-0.32233883058470764,-0.12143928035982009,0.2608695652173913,101.17187905561111,32.04373915400938,2024-09-20 14:54:19.298858752+02:00
1726836859318.39,5.119565217391304,5.33695652173913,10.130434782608695,2.0,2.3435897435897437,426.69584245076584,-7.419847328244274,1.129770992366412,1.4809160305343512,-0.328335832083958,-0.10644677661169415,0.2608695652173913,101.18013218618815,32.04373915400938,2024-09-20 14:54:19.318390016+02:00
1726836859337.9211,5.141304347826087,5.326086956521739,10.17391304347826,2.0,2.3435897435897437,426.69584245076584,-7.49618320610687,0.9465648854961831,1.3587786259541985,-0.3313343328335832,-0.13043478260869565,0.26686656671664166,101.17463009653287,32.04373915400938,2024-09-20 14:54:19.337921024+02:00
1726836859357.4524,5.0978260869565215,5.326086956521739,10.152173913043478,2.0,2.3435897435897437,426.69584245076584,-7.312977099236641,1.0534351145038168,1.4045801526717556,-0.3238380809595202,-0.12593703148425786,0.2698650674662669,101.17463009653287,32.04373915400938,2024-09-20 14:54:19.357452288+02:00
1726836859376.9836,5.119565217391304,5.358695652173913,10.16304347826087,2.0,2.3435897435897437,426.69584245076584,-7.679389312977099,0.9770992366412213,1.7404580152671756,-0.33433283358320837,-0.1184407796101949,0.2653673163418291,101.17463009653287,32.04373915400938,2024-09-20 14:54:19.376983552+02:00
1726836859396.515,5.119565217391304,5.358695652173913,10.141304347826086,2.0,2.342124542124542,426.96277760400375,-7.3893129770992365,1.099236641221374,2.229007633587786,-0.3238380809595202,-0.11544227886056971,0.2653673163418291,101.16912801729329,32.04373915400938,2024-09-20 14:54:19.396514816+02:00
1726836859416.046,5.0978260869565215,5.358695652173913,10.152173913043478,2.0,2.342124542124542,426.96277760400375,-7.297709923664121,0.9312977099236641,1.984732824427481,-0.32533733133433285,-0.1184407796101949,0.26836581709145424,101.17738114005854,32.04373915400938,2024-09-20 14:54:19.416045824+02:00
1726836859435.5774,5.08695652173913,5.358695652173913,10.152173913043478,2.0,2.340659340659341,427.2300469483568,-7.404580152671755,1.0687022900763359,1.5419847328244274,-0.328335832083958,-0.1169415292353823,0.2623688155922039,101.17463009653287,32.04373915400938,2024-09-20 14:54:19.435577344+02:00
1726836859455.1086,5.0978260869565215,5.369565217391304,10.141304347826086,2.0,2.340659340659341,427.2300469483568,-7.587786259541985,0.9618320610687022,1.7099236641221374,-0.3373313343328336,-0.12143928035982009,0.27136431784107945,101.17738114005854,32.04373915400938,2024-09-20 14:54:19.455108608+02:00
1726836859474.64,5.108695652173913,5.358695652173913,10.119565217391305,2.0,2.340659340659341,427.2300469483568,-7.435114503816793,0.732824427480916,1.816793893129771,-0.3373313343328336,-0.11544227886056971,0.27136431784107945,101.17738114005854,32.04373915400938,2024-09-20 14:54:19.474639872+02:00
1726836859494.1711,5.119565217391304,5.3478260869565215,10.152173913043478,2.0,2.340659340659341,427.2300469483568,-7.374045801526718,0.8091603053435115,1.8778625954198473,-0.335832083958021,-0.13043478260869565,0.26836581709145424,101.17187905561111,32.04373915400938,2024-09-20 14:54:19.494171136+02:00
1726836859513.7024,5.108695652173913,5.326086956521739,10.152173913043478,2.0,2.340659340659341,427.2300469483568,-7.297709923664121,1.083969465648855,1.5419847328244274,-0.33433283358320837,-0.12743628185907047,0.2698650674662669,101.17463009653287,32.04373915400938,2024-09-20 14:54:19.513702400+02:00
1726836859533.2336,5.108695652173913,5.358695652173913,10.152173913043478,2.0,2.3391941391941393,427.49765111180704,-7.32824427480916,1.129770992366412,1.816793893129771,-0.335832083958021,-0.12593703148425786,0.2638680659670165,101.17738114005854,32.04373915400938,2024-09-20 14:54:19.533233664+02:00
1726836859552.765,5.08695652173913,5.33695652173913,10.141304347826086,2.0,2.3391941391941393,427.49765111180704,-7.694656488549618,0.732824427480916,1.8625954198473282,-0.3313343328335832,-0.1199400299850075,0.26836581709145424,101.17738114005854,32.04373915400938,2024-09-20 14:54:19.552764928+02:00
1726836859572.296,5.08695652173913,5.391304347826087,10.119565217391305,2.0,2.337728937728938,427.765590723911,-7.419847328244274,0.6106870229007634,2.015267175572519,-0.3328335832083958,-0.1184407796101949,0.2518740629685157,101.17738114005854,32.04373915400938,2024-09-20 14:54:19.572295936+02:00
1726836859591.8274,5.119565217391304,5.315217391304348,10.152173913043478,2.0,2.337728937728938,427.765590723911,-7.419847328244274,0.916030534351145,1.5725190839694656,-0.3313343328335832,-0.11544227886056971,0.26836581709145424,101.17463009653287,32.04373915400938,2024-09-20 14:54:19.591827456+02:00
1726836859611.3586,5.1521739130434785,5.358695652173913,10.108695652173912,2.0,2.337728937728938,427.765590723911,-7.358778625954198,0.47328244274809156,1.5877862595419847,-0.3313343328335832,-0.1199400299850075,0.2623688155922039,101.18013218618815,32.04373915400938,2024-09-20 14:54:19.611358720+02:00
1726836859630.89,5.108695652173913,5.326086956521739,10.152173913043478,2.0,2.337728937728938,427.765590723911,-7.572519083969465,0.7633587786259541,1.5419847328244274,-0.335832083958021,-0.1199400299850075,0.2653673163418291,101.17187905561111,32.04373915400938,2024-09-20 14:54:19.630889984+02:00
1726836859650.4211,5.108695652173913,5.358695652173913,10.130434782608695,2.0,2.337728937728938,427.765590723911,-7.358778625954198,0.7786259541984732,1.6030534351145038,-0.3238380809595202,-0.12293853073463268,0.26836581709145424,101.17738114005854,32.04373915400938,2024-09-20 14:54:19.650421248+02:00
1726836859669.9524,5.0978260869565215,5.358695652173913,10.141304347826086,2.0,2.3362637362637364,428.0338664158043,-7.404580152671755,0.8702290076335878,1.648854961832061,-0.328335832083958,-0.12593703148425786,0.272863568215892,101.17463009653287,32.04373915400938,2024-09-20 14:54:19.669952512+02:00
1726836859689.4836,5.130434782608695,5.3478260869565215,10.141304347826086,2.0,2.3362637362637364,428.0338664158043,-7.3893129770992365,0.549618320610687,1.7099236641221374,-0.3313343328335832,-0.12893553223388304,0.2653673163418291,101.17463009653287,32.04373915400938,2024-09-20 14:54:19.689483520+02:00
1726836859709.015,5.108695652173913,5.369565217391304,10.16304347826087,2.0,2.334798534798535,428.30247882020706,-7.419847328244274,0.916030534351145,1.8473282442748091,-0.32233883058470764,-0.12143928035982009,0.26686656671664166,101.17187905561111,32.04373915400938,2024-09-20 14:54:19.709014784+02:00
